time,acc_x,acc_y,acc_z,vel_x,vel_y,vel_z,pos_x,pos_y,pos_z
0.0,0.020,0.138,0.353,0.000,0.000,0.000,0.000,0.000,0.000
0.0,-0.011,0.020,-0.024,0.000,0.000,0.000,0.000,0.000,0.000
0.1,-0.003,0.001,0.011,0.000,0.000,0.000,0.000,0.000,0.000
0.1,-0.008,-0.009,0.012,0.000,0.000,0.000,0.000,0.000,0.000
0.1,-0.008,0.010,0.009,0.000,0.000,0.000,0.000,0.000,0.000
0.1,-0.005,0.011,0.013,0.000,0.000,0.000,0.000,0.000,0.000
0.1,-0.016,0.010,-0.012,0.000,0.000,0.000,0.000,0.000,0.000
0.2,0.004,0.001,0.019,0.000,0.000,0.000,0.000,0.000,0.000
0.2,-0.005,0.030,-0.010,0.000,0.000,0.000,0.000,0.000,0.000
0.2,0.004,0.040,0.027,0.000,0.000,0.000,0.000,0.000,0.000
0.2,0.003,0.010,0.006,0.000,0.000,0.000,0.000,0.000,0.000
0.2,-0.006,0.020,-0.003,0.000,0.000,0.000,0.000,0.000,0.000
0.3,-0.007,0.020,0.005,0.000,0.000,0.000,0.000,0.000,0.000
0.3,-0.017,-0.009,0.014,0.000,0.000,0.000,0.000,0.000,0.000
0.3,-0.004,0.030,-0.006,0.000,0.000,0.000,0.000,0.000,0.000
0.3,-0.004,0.001,-0.024,0.000,0.000,0.000,0.000,0.000,0.000
0.3,-0.004,0.010,0.005,0.000,0.000,0.000,0.000,0.000,0.000
0.4,-0.003,0.030,0.005,0.000,0.000,0.000,0.000,0.000,0.000
0.4,0.006,-0.029,0.005,0.000,0.000,0.000,0.000,0.000,0.000
0.4,-0.014,-0.019,-0.015,0.000,0.000,0.000,0.000,0.000,0.000
0.4,0.005,0.010,-0.014,0.000,0.000,0.000,0.000,0.000,0.000
0.4,-0.004,0.010,-0.004,0.000,0.000,0.000,0.000,0.000,0.000
0.5,-0.013,0.001,-0.013,0.000,0.000,0.000,0.000,0.000,0.000
0.5,-0.003,0.020,-0.003,0.000,0.000,0.000,0.000,0.000,0.000
0.5,0.006,0.030,-0.012,0.000,0.000,0.000,0.000,0.000,0.000
0.5,-0.013,-0.000,-0.032,0.000,0.000,0.000,0.000,0.000,0.000
0.5,-0.004,-0.000,-0.012,0.000,0.000,0.000,0.000,0.000,0.000
0.6,-0.004,-0.020,-0.020,0.000,0.000,0.000,0.000,0.000,0.000
0.6,-0.004,-0.000,-0.010,0.000,0.000,0.000,0.000,0.000,0.000
0.6,-0.014,-0.000,-0.038,0.000,0.000,0.000,0.000,0.000,0.000
0.6,0.005,0.010,-0.008,0.000,0.000,0.000,0.000,0.000,0.000
0.6,0.005,-0.000,-0.008,0.000,0.000,0.000,0.000,0.000,0.000
0.7,-0.004,-0.010,-0.034,0.000,0.000,0.000,0.000,0.000,0.000
0.7,-0.004,-0.010,-0.014,0.000,0.000,0.000,0.000,0.000,0.000
0.7,-0.004,-0.010,-0.014,0.000,0.000,0.000,0.000,0.000,0.000
0.7,0.005,-0.000,-0.021,0.000,0.000,0.000,0.000,0.000,0.000
0.7,0.005,0.000,-0.029,0.000,0.000,0.000,0.000,0.000,0.000
0.8,-0.014,0.020,-0.029,0.000,0.000,0.000,0.000,0.000,0.000
0.8,0.004,0.000,-0.026,0.000,0.000,0.000,0.000,0.000,0.000
0.8,-0.005,-0.010,-0.026,0.000,0.000,0.000,0.000,0.000,0.000
0.8,-0.004,-0.020,-0.013,0.000,0.000,0.000,0.000,0.000,0.000
0.8,-0.003,0.000,-0.021,0.000,0.000,0.000,0.000,0.000,0.000
0.9,-0.023,-0.020,-0.050,0.000,0.000,0.000,0.000,0.000,0.000
0.9,-0.014,0.000,-0.028,0.000,0.000,0.000,0.000,0.000,0.000
0.9,-0.004,-0.020,-0.026,0.000,0.000,0.000,0.000,0.000,0.000
0.9,0.006,0.010,-0.026,0.000,0.000,0.000,0.000,0.000,0.000
0.9,0.006,-0.020,-0.033,0.000,0.000,0.000,0.000,0.000,0.000
1.0,-0.003,0.000,-0.031,0.000,0.000,0.000,0.000,0.000,0.000
1.0,0.006,0.000,-0.028,0.000,0.000,0.000,0.000,0.000,0.000
1.0,0.006,0.010,-0.048,0.000,0.000,0.000,0.000,0.000,0.000
1.0,-0.012,-0.020,-0.043,0.000,0.000,0.000,0.000,0.000,0.000
1.0,-0.002,-0.010,-0.043,0.000,0.000,0.000,0.000,0.000,0.000
1.1,-0.023,0.000,-0.040,0.000,0.000,0.000,0.000,0.000,0.000
1.1,0.006,-0.010,-0.036,0.000,0.000,0.000,0.000,0.000,0.000
1.1,-0.003,-0.029,-0.033,0.000,0.000,0.000,0.000,0.000,0.000
1.1,-0.003,0.000,-0.023,0.000,0.000,0.000,0.000,0.000,0.000
1.1,0.006,-0.010,-0.030,0.000,0.000,0.000,0.000,0.000,0.000
1.2,0.005,-0.010,-0.028,0.000,0.000,0.000,0.000,0.000,0.000
1.2,0.005,-0.020,-0.038,0.000,0.000,0.000,0.000,0.000,0.000
1.2,0.005,0.000,-0.025,0.000,0.000,0.000,0.000,0.000,0.000
1.2,0.004,-0.019,-0.041,0.000,0.000,0.000,0.000,0.000,0.000
1.2,-0.015,-0.019,-0.031,0.000,0.000,0.000,0.000,0.000,0.000
1.3,-0.005,0.000,-0.038,0.000,0.000,0.000,0.000,0.000,0.000
1.3,-0.004,0.029,-0.034,0.000,0.000,0.000,0.000,0.000,0.000
1.3,-0.014,0.010,-0.034,0.000,0.000,0.000,0.000,0.000,0.000
1.3,0.005,0.020,-0.043,0.000,0.000,0.000,0.000,0.000,0.000
1.3,-0.013,0.020,-0.048,0.000,0.000,0.000,0.000,0.000,0.000
1.4,-0.003,0.039,-0.026,0.000,0.000,0.000,0.000,0.000,0.000
1.4,-0.013,0.000,-0.026,0.000,0.000,0.000,0.000,0.000,0.000
1.4,-0.012,0.029,-0.042,0.000,0.000,0.000,0.000,0.000,0.000
1.4,0.007,0.020,-0.020,0.000,0.000,0.000,0.000,0.000,0.000
1.4,0.007,0.020,-0.030,0.000,0.000,0.000,0.000,0.000,0.000
1.5,-0.011,0.020,-0.037,0.000,0.000,0.000,0.000,0.000,0.000
1.5,0.007,0.039,-0.024,0.000,0.000,0.000,0.000,0.000,0.000
1.5,-0.002,0.010,-0.034,0.000,0.000,0.000,0.000,0.000,0.000
1.5,0.007,0.020,-0.031,0.000,0.000,0.000,0.000,0.000,0.000
1.5,-0.003,0.020,-0.022,0.000,0.000,0.000,0.000,0.000,0.000
1.6,-0.003,0.029,-0.017,0.000,0.000,0.000,0.000,0.000,0.000
1.6,0.006,0.000,-0.016,0.000,0.000,0.000,0.000,0.000,0.000
1.6,0.006,0.020,-0.025,0.000,0.000,0.000,0.000,0.000,0.000
1.6,0.005,0.039,-0.023,0.000,0.000,0.000,0.000,0.000,0.000
1.6,-0.004,0.039,-0.021,0.000,0.000,0.000,0.000,0.000,0.000
1.7,-0.014,0.010,-0.021,0.000,0.000,0.000,0.000,0.000,0.000
1.7,-0.004,0.010,-0.029,0.000,0.000,0.000,0.000,0.000,0.000
1.7,0.005,0.020,-0.026,0.000,0.000,0.000,0.000,0.000,0.000
1.7,-0.014,0.000,-0.026,0.000,0.000,0.000,0.000,0.000,0.000
1.7,0.005,0.020,-0.013,0.000,0.000,0.000,0.000,0.000,0.000
1.8,-0.013,0.010,-0.021,0.000,0.000,0.000,0.000,0.000,0.000
1.8,0.006,0.000,-0.031,0.000,0.000,0.000,0.000,0.000,0.000
1.8,0.006,0.029,-0.030,0.000,0.000,0.000,0.000,0.000,0.000
1.8,-0.004,0.010,-0.027,0.000,0.000,0.000,0.000,0.000,0.000
1.8,-0.004,0.029,-0.008,0.000,0.000,0.000,0.000,0.000,0.000
1.9,-0.013,-0.010,-0.015,0.000,0.000,0.000,0.000,0.000,0.000
1.9,-0.003,0.029,-0.014,0.000,0.000,0.000,0.000,0.000,0.000
1.9,-0.012,0.000,-0.022,0.000,0.000,0.000,0.000,0.000,0.000
1.9,0.008,0.039,-0.012,0.000,0.000,0.000,0.000,0.000,0.000
1.9,0.007,0.010,-0.029,0.000,0.000,0.000,0.000,0.000,0.000
2.0,0.007,0.039,0.001,0.000,0.000,0.000,0.000,0.000,0.000
2.0,-0.003,0.010,-0.019,0.000,0.000,0.000,0.000,0.000,0.000
2.0,-0.003,0.039,-0.017,0.000,0.000,0.000,0.000,0.000,0.000
2.0,0.006,-0.020,-0.016,0.000,0.000,0.000,0.000,0.000,0.000
2.0,0.006,0.000,-0.006,0.000,0.000,0.000,0.000,0.000,0.000
2.1,0.006,-0.020,-0.005,0.000,0.000,0.000,0.000,0.000,0.000
2.1,0.005,0.000,-0.013,0.000,0.000,0.000,0.000,0.000,0.000
2.1,-0.004,-0.010,-0.023,0.000,0.000,0.000,0.000,0.000,0.000
2.1,0.005,0.010,-0.002,0.000,0.000,0.000,0.000,0.000,0.000
2.1,0.004,-0.010,-0.010,0.000,0.000,0.000,0.000,0.000,0.000
2.2,-0.005,-0.020,-0.020,0.000,0.000,0.000,0.000,0.000,0.000
2.2,0.005,-0.039,0.008,0.000,0.000,0.000,0.000,0.000,0.000
2.2,0.004,-0.020,-0.010,0.000,0.000,0.000,0.000,0.000,0.000
2.2,-0.005,-0.010,-0.020,0.000,0.000,0.000,0.000,0.000,0.000
2.2,-0.006,0.000,-0.019,0.000,0.000,0.000,0.000,0.000,0.000
2.3,-0.005,-0.020,-0.009,0.000,0.000,0.000,0.000,0.000,0.000
2.3,0.004,-0.010,-0.008,0.000,0.000,0.000,0.000,0.000,0.000
2.3,-0.005,-0.029,-0.018,0.000,0.000,0.000,0.000,0.000,0.000
2.3,-0.005,0.000,0.002,0.000,0.000,0.000,0.000,0.000,0.000
2.3,0.004,-0.020,-0.007,0.000,0.000,0.000,0.000,0.000,0.000
2.4,0.004,0.000,0.002,0.000,0.000,0.000,0.000,0.000,0.000
2.4,0.004,-0.020,-0.007,0.000,0.000,0.000,0.000,0.000,0.000
2.4,0.004,0.000,-0.006,0.000,0.000,0.000,0.000,0.000,0.000
2.4,0.004,-0.020,-0.016,0.000,0.000,0.000,0.000,0.000,0.000
2.4,0.003,-0.010,-0.006,0.000,0.000,0.000,0.000,0.000,0.000
2.5,0.003,-0.039,0.004,0.000,0.000,0.000,0.000,0.000,0.000
2.5,0.003,-0.020,-0.005,0.000,0.000,0.000,0.000,0.000,0.000
2.5,-0.007,-0.010,0.004,0.000,0.000,0.000,0.000,0.000,0.000
2.5,-0.006,0.000,-0.014,0.000,0.000,0.000,0.000,0.000,0.000
2.5,0.003,0.000,0.005,0.000,0.000,0.000,0.000,0.000,0.000
2.6,-0.056,-0.049,-0.112,0.000,0.000,0.000,0.000,0.000,0.000
2.6,-0.006,-0.039,0.049,0.000,0.000,0.000,0.000,0.000,0.000
2.6,0.003,-0.029,-0.035,0.000,0.000,0.000,0.000,0.000,0.000
2.6,0.003,-0.039,-0.035,0.000,0.000,0.000,0.000,0.000,0.000
2.6,-0.015,-0.010,0.003,0.000,0.000,0.000,0.000,0.000,0.000
2.7,0.005,0.039,0.052,0.000,0.000,0.000,0.000,0.000,0.000
2.7,-0.024,-0.010,-0.024,0.000,0.000,0.000,0.000,0.000,0.000
2.7,0.005,0.000,0.014,0.000,0.000,0.000,0.000,0.000,0.000
2.7,0.005,0.000,0.024,0.000,0.000,0.000,0.000,0.000,0.000
2.7,0.004,0.000,-0.005,0.000,0.000,0.000,0.000,0.000,0.000
2.8,0.004,0.020,0.004,0.000,0.000,0.000,0.000,0.000,0.000
2.8,0.004,-0.010,0.004,0.000,0.000,0.000,0.000,0.000,0.000
2.8,0.004,0.010,-0.005,0.000,0.000,0.000,0.000,0.000,0.000
2.8,0.003,0.010,0.004,0.000,0.000,0.000,0.000,0.000,0.000
2.8,-0.016,-0.020,0.004,0.000,0.000,0.000,0.000,0.000,0.000
2.9,0.003,0.000,0.005,0.000,0.000,0.000,0.000,0.000,0.000
2.9,-0.006,0.000,0.004,0.000,0.000,0.000,0.000,0.000,0.000
2.9,-0.006,0.010,-0.005,0.000,0.000,0.000,0.000,0.000,0.000
2.9,0.003,0.029,0.004,0.000,0.000,0.000,0.000,0.000,0.000
2.9,0.003,0.020,-0.014,0.000,0.000,0.000,0.000,0.000,0.000
3.0,0.003,0.010,0.005,0.000,0.000,0.000,0.000,0.000,0.000
3.0,0.004,-0.010,0.034,0.000,0.000,0.000,0.000,0.000,0.000
3.0,0.003,0.010,-0.004,0.000,0.000,0.000,0.000,0.000,0.000
3.0,0.003,0.010,0.005,0.000,0.000,0.000,0.000,0.000,0.000
3.0,0.023,0.010,0.015,0.000,0.000,0.000,0.000,0.000,0.000
3.1,0.003,0.010,0.004,0.000,0.000,0.000,0.000,0.000,0.000
3.1,-0.006,0.010,0.013,0.000,0.000,0.000,0.000,0.000,0.000
3.1,-0.016,-0.010,0.013,0.000,0.000,0.000,0.000,0.000,0.000
3.1,0.003,0.010,0.003,0.000,0.000,0.000,0.000,0.000,0.000
3.1,-0.015,-0.010,0.003,0.000,0.000,0.000,0.000,0.000,0.000
3.2,-0.015,0.029,0.013,0.000,0.000,0.000,0.000,0.000,0.000
3.2,0.004,0.020,0.002,0.000,0.000,0.000,0.000,0.000,0.000
3.2,0.004,0.029,0.020,0.000,0.000,0.000,0.000,0.000,0.000
3.2,0.004,0.010,0.010,0.000,0.000,0.000,0.000,0.000,0.000
3.2,0.003,0.020,0.021,0.000,0.000,0.000,0.000,0.000,0.000
3.3,0.003,0.010,0.001,0.000,0.000,0.000,0.000,0.000,0.000
3.3,0.003,-0.010,0.011,0.000,0.000,0.000,0.000,0.000,0.000
3.3,0.003,0.020,-0.009,0.000,0.000,0.000,0.000,0.000,0.000
3.3,-0.006,0.010,0.009,0.000,0.000,0.000,0.000,0.000,0.000
3.3,0.003,0.020,-0.000,0.000,0.000,0.000,0.000,0.000,0.000
3.4,0.003,0.020,0.009,0.000,0.000,0.000,0.000,0.000,0.000
3.4,0.003,0.010,-0.000,0.000,0.000,0.000,0.000,0.000,0.000
3.4,-0.006,0.029,0.009,0.000,0.000,0.000,0.000,0.000,0.000
3.4,-0.006,0.000,-0.001,0.000,0.000,0.000,0.000,0.000,0.000
3.4,-0.006,0.010,-0.001,0.000,0.000,0.000,0.000,0.000,0.000
3.5,0.004,0.020,0.008,0.000,0.000,0.000,0.000,0.000,0.000
3.5,-0.006,0.000,-0.002,0.000,0.000,0.000,0.000,0.000,0.000
3.5,0.003,0.010,0.007,0.000,0.000,0.000,0.000,0.000,0.000
3.5,0.003,0.000,0.016,0.000,0.000,0.000,0.000,0.000,0.000
3.5,-0.006,0.000,0.006,0.000,0.000,0.000,0.000,0.000,0.000
3.6,0.003,-0.020,0.014,0.000,0.000,0.000,0.000,0.000,0.000
3.6,0.003,-0.010,0.004,0.000,0.000,0.000,0.000,0.000,0.000
3.6,0.003,0.000,0.024,0.000,0.000,0.000,0.000,0.000,0.000
3.6,0.002,-0.010,-0.005,0.000,0.000,0.000,0.000,0.000,0.000
3.6,0.002,0.020,0.013,0.000,0.000,0.000,0.000,0.000,0.000
3.7,-0.007,0.000,-0.006,0.000,0.000,0.000,0.000,0.000,0.000
3.7,0.002,-0.010,-0.006,0.000,0.000,0.000,0.000,0.000,0.000
3.7,0.002,0.000,-0.005,0.000,0.000,0.000,0.000,0.000,0.000
3.7,0.002,-0.010,-0.005,0.000,0.000,0.000,0.000,0.000,0.000
3.7,0.002,0.010,0.022,0.000,0.000,0.000,0.000,0.000,0.000
3.8,-0.007,0.010,0.020,0.000,0.000,0.000,0.000,0.000,0.000
3.8,0.002,-0.010,0.000,0.000,0.000,0.000,0.000,0.000,0.000
3.8,0.002,-0.010,-0.008,0.000,0.000,0.000,0.000,0.000,0.000
3.8,0.002,0.020,0.001,0.000,0.000,0.000,0.000,0.000,0.000
3.8,0.002,-0.010,0.010,0.000,0.000,0.000,0.000,0.000,0.000
3.9,-0.007,0.000,0.009,0.000,0.000,0.000,0.000,0.000,0.000
3.9,0.002,0.010,-0.000,0.000,0.000,0.000,0.000,0.000,0.000
3.9,0.002,0.000,0.009,0.000,0.000,0.000,0.000,0.000,0.000
3.9,0.002,-0.010,0.017,0.000,0.000,0.000,0.000,0.000,0.000
3.9,-0.027,0.010,0.008,0.000,0.000,0.000,0.000,0.000,0.000
4.0,0.002,-0.010,0.006,0.000,0.000,0.000,0.000,0.000,0.000
4.0,-0.007,0.010,0.006,0.000,0.000,0.000,0.000,0.000,0.000
4.0,0.003,0.000,0.015,0.000,0.000,0.000,0.000,0.000,0.000
4.0,0.002,0.000,0.005,0.000,0.000,0.000,0.000,0.000,0.000
4.0,0.002,0.000,0.005,0.000,0.000,0.000,0.000,0.000,0.000
4.1,0.002,0.020,0.003,0.000,0.000,0.000,0.000,0.000,0.000
4.1,-0.016,-0.010,-0.006,0.000,0.000,0.000,0.000,0.000,0.000
4.1,0.003,0.020,0.030,-0.000,0.000,0.000,0.000,0.000,0.000
4.1,-0.006,-0.020,0.010,-0.000,0.000,0.000,0.000,0.000,0.000
4.1,0.003,0.010,0.009,-0.000,0.000,0.001,-0.000,0.000,0.000
4.2,-0.006,0.000,0.017,-0.000,0.000,0.001,-0.000,0.000,0.000
4.2,0.004,0.000,0.017,-0.000,0.000,0.001,-0.000,0.000,0.000
4.2,0.003,-0.010,0.027,-0.000,0.000,0.001,-0.000,0.000,0.000
4.2,0.003,0.010,0.025,-0.000,0.000,0.002,-0.000,0.000,0.000
4.2,0.003,0.000,-0.005,-0.000,0.000,0.002,-0.000,0.000,0.000
4.3,-0.006,0.039,0.023,-0.000,0.001,0.002,-0.000,0.000,0.000
4.3,0.003,-0.010,0.003,-0.000,0.001,0.003,-0.000,0.000,0.000
4.3,0.003,0.020,0.013,-0.000,0.001,0.003,-0.000,0.000,0.000
4.3,0.003,0.010,0.002,-0.000,0.001,0.003,-0.000,0.000,0.001
4.3,-0.015,0.029,0.010,-0.000,0.001,0.003,-0.000,0.000,0.001
4.4,0.005,0.010,0.010,-0.000,0.002,0.004,-0.000,0.000,0.001
4.4,-0.005,0.039,0.010,-0.000,0.002,0.004,-0.000,0.000,0.001
4.4,0.004,0.029,0.009,-0.000,0.002,0.004,-0.000,0.000,0.001
4.4,0.004,0.010,0.019,-0.000,0.003,0.005,-0.000,0.000,0.001
4.4,0.003,0.000,0.009,-0.000,0.003,0.005,-0.000,0.000,0.001
4.5,0.003,0.039,0.017,-0.000,0.004,0.005,-0.000,0.001,0.001
4.5,0.003,0.020,0.007,-0.000,0.004,0.005,-0.000,0.001,0.001
4.5,0.003,0.020,0.007,0.000,0.005,0.006,-0.000,0.001,0.002
4.5,-0.015,0.000,0.006,0.000,0.005,0.006,-0.000,0.001,0.002
4.5,0.004,0.039,0.016,0.000,0.005,0.006,-0.000,0.001,0.002
4.6,-0.006,0.020,0.005,0.000,0.006,0.006,-0.000,0.001,0.002
4.6,0.004,0.039,0.014,0.000,0.007,0.007,-0.000,0.001,0.002
4.6,0.004,0.010,-0.005,0.000,0.007,0.007,-0.000,0.002,0.002
4.6,0.004,0.039,0.004,0.000,0.008,0.007,-0.000,0.002,0.003
4.6,0.004,0.010,-0.005,0.000,0.008,0.007,-0.000,0.002,0.003
4.7,-0.006,0.020,0.004,0.000,0.009,0.007,-0.000,0.002,0.003
4.7,0.003,0.010,0.014,0.000,0.010,0.008,-0.000,0.002,0.003
4.7,0.003,0.029,0.013,0.000,0.010,0.008,-0.000,0.003,0.003
4.7,0.003,0.039,0.013,0.000,0.010,0.008,0.000,0.003,0.004
4.7,-0.006,0.020,-0.006,0.000,0.011,0.008,0.000,0.003,0.004
4.8,-0.006,0.039,-0.006,0.000,0.011,0.008,0.000,0.003,0.004
4.8,0.003,0.000,0.012,0.000,0.012,0.008,0.000,0.004,0.004
4.8,0.003,0.010,0.002,0.000,0.013,0.008,0.000,0.004,0.004
4.8,0.003,0.020,-0.008,0.000,0.013,0.009,0.000,0.004,0.005
4.8,0.003,0.029,0.002,0.000,0.014,0.009,0.000,0.005,0.005
4.9,-0.007,0.010,-0.018,0.000,0.014,0.009,0.000,0.005,0.005
4.9,0.003,0.039,0.012,0.000,0.015,0.009,0.000,0.005,0.005
4.9,0.002,0.020,0.002,0.000,0.015,0.009,0.000,0.006,0.005
4.9,0.002,0.020,0.002,0.000,0.016,0.009,0.000,0.006,0.006
4.9,-0.007,0.000,-0.007,0.000,0.017,0.009,0.000,0.007,0.006
5.0,0.003,0.029,0.003,0.000,0.017,0.009,0.000,0.007,0.006
5.0,0.003,0.010,-0.007,0.000,0.017,0.009,0.000,0.007,0.006
5.0,0.002,0.000,0.003,0.000,0.018,0.009,0.000,0.008,0.007
5.0,0.002,-0.029,-0.006,0.000,0.018,0.009,0.000,0.008,0.007
5.0,-0.007,-0.020,0.004,0.000,0.019,0.009,0.000,0.009,0.007
5.1,0.002,-0.029,0.004,0.000,0.019,0.009,0.000,0.010,0.007
5.1,0.002,-0.010,0.013,0.000,0.019,0.009,0.000,0.010,0.007
5.1,0.002,-0.020,0.013,0.000,0.019,0.009,0.000,0.010,0.008
5.1,-0.008,-0.010,0.003,0.001,0.019,0.009,0.000,0.011,0.008
5.1,0.002,-0.020,0.003,0.001,0.019,0.009,0.000,0.011,0.008
5.2,0.002,-0.020,0.003,0.001,0.019,0.009,0.000,0.012,0.008
5.2,0.002,-0.029,0.004,0.001,0.019,0.009,0.000,0.013,0.009
5.2,0.001,0.000,0.004,0.001,0.018,0.009,0.000,0.013,0.009
5.2,0.001,-0.029,-0.006,0.001,0.018,0.009,0.000,0.013,0.009
5.2,0.001,-0.020,0.012,0.001,0.018,0.009,0.000,0.014,0.009
5.3,-0.008,-0.020,-0.006,0.001,0.018,0.009,0.000,0.014,0.010
5.3,0.002,-0.010,0.003,0.001,0.018,0.009,0.000,0.015,0.010
5.3,0.002,-0.010,-0.006,0.001,0.017,0.009,0.000,0.015,0.010
5.3,0.002,-0.010,0.003,0.001,0.017,0.009,0.000,0.016,0.010
5.3,0.002,-0.029,0.003,0.001,0.017,0.009,0.000,0.016,0.010
5.4,-0.007,-0.020,-0.006,0.001,0.016,0.009,0.000,0.016,0.011
5.4,-0.007,-0.029,-0.014,0.001,0.016,0.009,0.000,0.017,0.011
5.4,0.003,-0.020,0.005,0.001,0.016,0.009,0.000,0.017,0.011
5.4,0.003,0.000,0.014,0.001,0.015,0.009,0.000,0.018,0.011
5.4,0.002,-0.010,0.004,0.000,0.015,0.009,0.000,0.018,0.012
5.5,0.002,-0.010,0.004,0.000,0.014,0.009,0.000,0.019,0.012
5.5,0.002,-0.029,0.003,0.000,0.014,0.009,0.000,0.019,0.012
5.5,0.002,-0.020,0.003,0.000,0.013,0.009,0.000,0.019,0.012
5.5,0.002,-0.020,0.003,0.000,0.013,0.009,0.000,0.020,0.013
5.5,-0.007,-0.010,0.012,0.000,0.013,0.009,0.000,0.020,0.013
5.6,-0.006,-0.010,0.002,0.000,0.012,0.009,0.000,0.020,0.013
5.6,0.003,0.000,0.002,0.000,0.012,0.009,0.000,0.021,0.013
5.6,0.003,-0.020,0.002,0.000,0.012,0.009,0.000,0.021,0.014
5.6,0.003,-0.010,-0.007,0.000,0.011,0.009,0.000,0.021,0.014
5.6,0.003,-0.029,-0.007,0.000,0.011,0.009,0.000,0.022,0.014
5.7,-0.006,-0.010,0.011,0.000,0.010,0.009,0.000,0.022,0.014
5.7,0.003,-0.029,0.001,-0.000,0.010,0.009,0.000,0.022,0.015
5.7,0.003,-0.020,-0.009,-0.000,0.009,0.009,0.000,0.022,0.015
5.7,-0.006,-0.029,-0.008,-0.000,0.009,0.009,0.000,0.023,0.015
5.7,0.003,-0.020,-0.007,-0.000,0.008,0.009,0.000,0.023,0.015
5.8,-0.006,0.000,0.012,-0.000,0.008,0.009,0.000,0.023,0.016
5.8,0.003,0.000,0.002,-0.000,0.007,0.009,0.000,0.023,0.016
5.8,-0.006,0.000,0.011,-0.000,0.007,0.009,0.000,0.024,0.016
5.8,0.004,0.010,0.001,-0.000,0.007,0.009,0.000,0.024,0.016
5.8,-0.005,-0.010,0.001,-0.000,0.006,0.009,0.000,0.024,0.017
5.9,-0.005,-0.010,-0.008,-0.000,0.006,0.009,0.000,0.024,0.017
5.9,-0.006,-0.029,-0.008,-0.000,0.006,0.009,0.000,0.024,0.017
5.9,0.003,0.000,0.002,-0.000,0.005,0.009,0.000,0.024,0.017
5.9,0.003,-0.020,0.012,-0.000,0.005,0.009,0.000,0.024,0.018
5.9,0.004,0.010,0.002,-0.000,0.005,0.009,0.000,0.025,0.018
6.0,0.004,-0.029,-0.007,-0.000,0.005,0.009,0.000,0.025,0.018
6.0,-0.006,0.000,-0.007,-0.000,0.004,0.009,0.000,0.025,0.018
6.0,0.004,-0.020,0.013,-0.000,0.004,0.009,0.000,0.025,0.019
6.0,0.004,-0.010,0.002,-0.000,0.004,0.009,0.000,0.025,0.019
6.0,0.004,-0.010,0.002,-0.000,0.003,0.009,0.000,0.025,0.019
6.1,0.003,-0.020,0.002,-0.000,0.003,0.009,0.000,0.025,0.019
6.1,0.003,-0.010,0.002,-0.000,0.003,0.009,0.000,0.025,0.020
6.1,0.003,-0.010,0.002,-0.000,0.003,0.009,0.000,0.025,0.020
6.1,0.003,0.000,-0.007,-0.000,0.002,0.009,0.000,0.025,0.020
6.1,-0.006,-0.010,0.002,-0.000,0.002,0.009,0.000,0.025,0.020
6.2,0.003,-0.010,0.002,-0.000,0.002,0.009,0.000,0.025,0.020
6.2,0.003,-0.029,0.011,-0.000,0.002,0.010,0.000,0.026,0.021
6.2,0.003,0.010,0.002,-0.000,0.001,0.010,0.000,0.026,0.021
6.2,-0.007,0.000,0.002,-0.000,0.001,0.010,0.000,0.026,0.021
6.2,0.003,0.000,0.011,-0.000,0.001,0.010,0.000,0.026,0.021
6.3,0.003,-0.029,-0.009,-0.000,0.001,0.010,0.000,0.026,0.022
6.3,0.002,0.000,-0.009,-0.000,0.000,0.010,0.000,0.026,0.022
6.3,0.002,-0.029,-0.008,-0.000,0.000,0.010,0.000,0.026,0.022
6.3,-0.007,-0.010,0.012,-0.000,-0.000,0.010,0.000,0.026,0.022
6.3,0.002,-0.020,0.002,0.000,-0.000,0.010,0.000,0.026,0.023
6.4,-0.016,0.000,0.002,0.000,-0.001,0.010,0.000,0.026,0.023
6.4,0.003,-0.010,0.011,0.000,-0.001,0.010,0.000,0.026,0.023
6.4,0.003,0.000,0.001,-0.000,-0.001,0.010,0.000,0.026,0.023
6.4,0.003,-0.029,-0.008,-0.000,-0.001,0.010,0.000,0.026,0.024
6.4,0.003,-0.010,-0.008,-0.000,-0.002,0.010,0.000,0.026,0.024
6.5,-0.006,-0.010,-0.007,-0.000,-0.002,0.010,0.000,0.025,0.024
6.5,0.003,-0.010,0.003,-0.000,-0.002,0.010,0.000,0.025,0.024
6.5,0.003,-0.020,0.012,-0.000,-0.002,0.010,0.000,0.025,0.025
6.5,0.003,0.000,0.002,-0.000,-0.003,0.010,0.000,0.025,0.025
6.5,-0.007,0.000,-0.007,-0.000,-0.003,0.010,0.000,0.025,0.025
6.6,0.003,-0.020,0.002,-0.000,-0.003,0.010,0.000,0.025,0.026
6.6,-0.006,0.000,0.002,0.000,-0.003,0.010,0.000,0.025,0.026
6.6,0.003,-0.010,0.012,0.000,-0.003,0.010,0.000,0.025,0.026
6.6,-0.007,-0.020,-0.007,0.000,-0.004,0.010,0.000,0.025,0.026
6.6,0.003,0.000,0.002,0.000,-0.004,0.010,0.000,0.025,0.027
6.7,0.003,0.000,0.002,0.000,-0.004,0.010,0.000,0.025,0.027
6.7,-0.006,-0.020,-0.007,0.000,-0.004,0.010,0.000,0.025,0.027
6.7,0.003,0.000,0.012,0.000,-0.005,0.010,0.000,0.024,0.027
6.7,-0.007,-0.020,-0.008,0.000,-0.005,0.010,0.000,0.024,0.028
6.7,0.003,0.029,0.011,0.000,-0.005,0.010,0.000,0.024,0.028
6.8,0.003,-0.029,-0.008,0.000,-0.005,0.010,0.000,0.024,0.028
6.8,0.003,0.000,0.011,0.000,-0.005,0.010,0.000,0.024,0.028
6.8,0.002,-0.010,0.002,0.000,-0.005,0.010,0.000,0.024,0.029
6.8,0.002,-0.020,-0.008,0.000,-0.005,0.010,0.000,0.024,0.029
6.8,0.002,0.020,0.010,0.000,-0.005,0.010,0.000,0.024,0.029
6.9,-0.016,-0.010,-0.008,0.000,-0.006,0.010,0.000,0.023,0.029
6.9,0.004,0.010,0.001,0.000,-0.006,0.010,0.000,0.023,0.030
6.9,0.003,-0.020,0.001,0.000,-0.006,0.010,0.000,0.023,0.030
6.9,0.003,-0.010,0.010,0.000,-0.006,0.010,0.000,0.023,0.030
6.9,0.003,-0.010,0.010,0.000,-0.006,0.010,0.000,0.023,0.030
7.0,0.003,0.000,-0.009,0.000,-0.006,0.010,0.000,0.023,0.031
7.0,0.002,0.000,0.001,0.000,-0.007,0.010,0.000,0.022,0.031
7.0,0.002,0.000,-0.009,0.000,-0.007,0.010,0.000,0.022,0.031
7.0,0.002,-0.020,0.001,0.000,-0.007,0.010,0.000,0.022,0.031
7.0,0.002,-0.020,0.001,0.000,-0.007,0.010,0.000,0.022,0.032
7.1,0.002,-0.020,0.011,0.000,-0.007,0.010,0.000,0.022,0.032
7.1,-0.007,0.000,-0.008,0.000,-0.008,0.010,0.000,0.022,0.032
7.1,0.003,-0.010,-0.008,0.000,-0.008,0.010,0.000,0.021,0.033
7.1,0.002,0.000,0.001,0.000,-0.008,0.010,0.000,0.021,0.033
7.1,0.002,-0.010,0.001,0.000,-0.008,0.010,0.000,0.021,0.033
7.2,0.002,0.010,0.011,0.000,-0.008,0.010,0.000,0.021,0.033
7.2,0.002,0.000,0.001,0.000,-0.008,0.010,0.000,0.021,0.034
7.2,-0.007,0.010,0.010,0.000,-0.009,0.010,0.000,0.020,0.034
7.2,0.003,-0.010,0.010,0.000,-0.009,0.010,0.000,0.020,0.034
7.2,-0.006,-0.010,0.000,0.000,-0.009,0.010,0.000,0.020,0.034
7.3,0.003,0.010,0.000,0.000,-0.009,0.010,0.000,0.020,0.035
7.3,0.003,-0.010,0.001,0.000,-0.009,0.011,0.000,0.019,0.035
7.3,0.003,0.000,0.010,0.000,-0.009,0.011,0.000,0.019,0.035
7.3,0.003,0.000,0.000,0.000,-0.009,0.011,0.000,0.019,0.035
7.3,-0.006,0.000,0.000,0.000,-0.009,0.011,0.000,0.019,0.036
7.4,-0.006,0.010,0.000,0.000,-0.009,0.011,0.000,0.019,0.036
7.4,0.003,0.020,-0.010,0.000,-0.010,0.011,0.001,0.018,0.036
7.4,-0.006,-0.010,0.009,0.000,-0.010,0.011,0.001,0.018,0.036
7.4,0.004,0.000,0.009,0.000,-0.010,0.011,0.001,0.018,0.037
7.4,0.003,0.010,-0.010,0.000,-0.010,0.011,0.001,0.018,0.037
7.5,0.003,0.000,0.009,0.000,-0.010,0.011,0.001,0.017,0.037
7.5,0.003,0.020,-0.010,0.001,-0.010,0.011,0.001,0.017,0.038
7.5,0.003,0.000,0.008,0.001,-0.010,0.011,0.001,0.017,0.038
7.5,-0.006,0.010,0.008,0.001,-0.010,0.011,0.001,0.017,0.038
7.5,0.003,0.000,0.008,0.001,-0.010,0.011,0.001,0.016,0.038
7.6,0.003,0.000,-0.002,0.001,-0.010,0.011,0.001,0.016,0.039
7.6,0.003,0.000,0.008,0.001,-0.010,0.011,0.001,0.016,0.039
7.6,0.003,0.010,0.007,0.001,-0.010,0.011,0.001,0.016,0.039
7.6,-0.006,0.010,0.006,0.001,-0.010,0.011,0.001,0.015,0.040
7.6,0.003,0.000,0.006,0.001,-0.010,0.011,0.001,0.015,0.040
7.7,0.003,-0.010,-0.003,0.001,-0.010,0.011,0.001,0.015,0.040
7.7,0.003,0.000,0.006,0.001,-0.009,0.011,0.001,0.015,0.040
7.7,0.003,0.000,0.006,0.001,-0.009,0.012,0.001,0.014,0.041
7.7,0.003,0.010,0.006,0.001,-0.009,0.012,0.001,0.014,0.041
7.7,0.002,0.000,-0.003,0.001,-0.009,0.012,0.001,0.014,0.041
7.8,-0.007,0.010,-0.003,0.001,-0.009,0.012,0.001,0.014,0.042
7.8,0.002,0.010,0.006,0.001,-0.009,0.012,0.001,0.013,0.042
7.8,-0.007,0.000,0.006,0.001,-0.009,0.012,0.001,0.013,0.042
7.8,-0.016,-0.010,0.006,0.001,-0.009,0.012,0.001,0.013,0.042
7.8,0.003,-0.029,0.005,0.001,-0.009,0.012,0.001,0.013,0.043
7.9,0.003,0.010,0.005,0.001,-0.009,0.012,0.001,0.013,0.043
7.9,0.003,-0.010,0.005,0.001,-0.009,0.012,0.001,0.012,0.043
7.9,0.003,-0.010,0.005,0.001,-0.009,0.012,0.001,0.012,0.044
7.9,-0.006,0.010,0.004,0.001,-0.009,0.012,0.001,0.012,0.044
7.9,0.003,0.000,0.004,0.001,-0.009,0.013,0.001,0.012,0.044
8.0,-0.006,0.000,0.004,0.001,-0.009,0.013,0.001,0.011,0.045
8.0,0.003,0.000,0.004,0.001,-0.009,0.013,0.001,0.011,0.045
8.0,-0.007,0.000,0.004,0.001,-0.009,0.013,0.001,0.011,0.045
8.0,-0.017,-0.020,0.003,0.001,-0.009,0.013,0.001,0.011,0.046
8.0,0.003,0.010,0.003,0.001,-0.009,0.013,0.001,0.011,0.046
8.1,-0.027,0.000,0.003,0.001,-0.009,0.013,0.001,0.010,0.046
8.1,0.002,0.010,0.021,0.001,-0.009,0.013,0.001,0.010,0.046
8.1,0.002,0.010,0.001,0.001,-0.009,0.013,0.001,0.010,0.047
8.1,0.002,0.000,0.021,0.001,-0.009,0.013,0.001,0.010,0.047
8.1,0.002,0.010,0.001,0.001,-0.008,0.014,0.001,0.010,0.047
8.2,0.002,-0.010,0.010,0.001,-0.008,0.014,0.001,0.009,0.048
8.2,0.002,0.000,0.010,0.001,-0.008,0.014,0.001,0.009,0.048
8.2,-0.007,-0.020,0.009,0.001,-0.008,0.014,0.001,0.009,0.048
8.2,-0.017,0.000,-0.001,0.000,-0.008,0.014,0.001,0.009,0.049
8.2,-0.007,-0.010,0.008,0.000,-0.008,0.014,0.001,0.008,0.049
8.3,-0.006,0.010,-0.001,0.000,-0.008,0.015,0.001,0.008,0.050
8.3,-0.006,0.000,-0.001,0.000,-0.009,0.015,0.001,0.008,0.050
8.3,0.003,-0.010,0.008,0.000,-0.009,0.015,0.001,0.008,0.050
8.3,-0.006,-0.010,-0.002,-0.000,-0.009,0.015,0.001,0.007,0.051
8.3,0.004,0.000,0.008,-0.000,-0.009,0.015,0.001,0.007,0.051
8.4,-0.005,0.000,-0.002,-0.000,-0.009,0.015,0.001,0.007,0.051
8.4,0.004,-0.020,0.008,-0.000,-0.009,0.015,0.001,0.007,0.052
8.4,-0.004,-0.010,-0.002,-0.000,-0.009,0.015,0.001,0.007,0.052
8.4,0.005,-0.010,-0.002,-0.000,-0.009,0.016,0.001,0.006,0.053
8.4,-0.004,0.010,0.018,-0.000,-0.009,0.016,0.001,0.006,0.053
8.5,0.006,0.010,0.017,-0.001,-0.009,0.016,0.001,0.006,0.054
8.5,-0.004,0.010,-0.002,-0.001,-0.009,0.016,0.001,0.006,0.054
8.5,-0.003,-0.010,-0.002,-0.001,-0.009,0.016,0.001,0.005,0.055
8.5,-0.003,-0.010,0.008,-0.001,-0.009,0.016,0.001,0.005,0.055
8.5,0.006,-0.010,0.007,-0.001,-0.009,0.016,0.001,0.005,0.055
8.6,-0.013,-0.029,0.007,-0.001,-0.010,0.016,0.001,0.005,0.056
8.6,-0.003,0.000,0.007,-0.001,-0.010,0.017,0.001,0.004,0.056
8.6,-0.002,-0.020,0.007,-0.001,-0.010,0.017,0.001,0.004,0.057
8.6,0.007,0.000,0.015,-0.001,-0.010,0.017,0.001,0.004,0.057
8.6,-0.003,0.000,-0.004,-0.001,-0.010,0.017,0.001,0.003,0.058
8.7,0.007,0.010,0.006,-0.001,-0.011,0.017,0.001,0.003,0.058
8.7,0.006,-0.010,-0.004,-0.001,-0.011,0.017,0.001,0.003,0.059
8.7,-0.012,0.010,0.006,-0.001,-0.011,0.017,0.001,0.003,0.059
8.7,0.007,-0.029,-0.004,-0.001,-0.011,0.017,0.001,0.002,0.060
8.7,-0.002,0.000,0.016,-0.001,-0.011,0.017,0.001,0.002,0.060
8.8,0.007,-0.020,-0.003,-0.001,-0.011,0.017,0.001,0.002,0.061
8.8,-0.012,0.020,-0.003,-0.001,-0.011,0.018,0.001,0.001,0.061
8.8,-0.003,0.010,-0.003,-0.001,-0.012,0.018,0.001,0.001,0.062
8.8,0.006,0.000,-0.012,-0.001,-0.012,0.018,0.001,0.001,0.062
8.8,0.006,-0.020,-0.002,-0.001,-0.012,0.018,0.001,0.001,0.062
8.9,-0.004,0.000,-0.002,-0.001,-0.012,0.018,0.001,0.000,0.063
8.9,0.005,-0.010,-0.002,-0.001,-0.012,0.018,0.001,-0.000,0.063
8.9,0.005,0.000,-0.002,-0.001,-0.012,0.018,0.001,-0.000,0.064
8.9,-0.004,-0.029,-0.002,-0.001,-0.012,0.018,0.001,-0.001,0.064
8.9,-0.004,0.010,-0.001,-0.001,-0.012,0.017,0.001,-0.001,0.065
9.0,-0.004,-0.010,-0.001,-0.001,-0.013,0.017,0.001,-0.001,0.065
9.0,0.005,-0.010,0.008,-0.001,-0.013,0.017,0.001,-0.002,0.066
9.0,-0.014,0.000,-0.002,-0.001,-0.013,0.017,0.001,-0.002,0.066
9.0,0.006,0.000,-0.002,-0.001,-0.013,0.017,0.001,-0.002,0.067
9.0,-0.013,-0.020,-0.002,-0.001,-0.013,0.017,0.001,-0.003,0.067
9.1,0.007,-0.010,-0.002,-0.001,-0.013,0.017,0.001,-0.003,0.067
9.1,0.006,0.010,-0.002,-0.001,-0.014,0.017,0.001,-0.003,0.068
9.1,-0.012,-0.010,-0.002,-0.001,-0.014,0.017,0.001,-0.004,0.068
9.1,0.007,0.020,0.008,-0.001,-0.014,0.017,0.001,-0.004,0.069
9.1,0.007,-0.020,-0.010,-0.001,-0.014,0.017,0.001,-0.004,0.069
9.2,0.006,0.020,-0.000,-0.001,-0.014,0.017,0.000,-0.005,0.070
9.2,-0.013,-0.020,-0.000,-0.001,-0.014,0.017,0.000,-0.005,0.070
9.2,-0.003,0.010,-0.000,-0.001,-0.014,0.017,0.000,-0.005,0.070
9.2,-0.003,-0.029,-0.000,-0.001,-0.015,0.017,0.000,-0.006,0.071
9.2,-0.003,0.010,-0.000,-0.001,-0.015,0.017,0.000,-0.006,0.071
9.3,0.006,-0.010,-0.000,-0.001,-0.015,0.017,0.000,-0.007,0.072
9.3,-0.003,0.000,-0.010,-0.001,-0.015,0.017,0.000,-0.007,0.072
9.3,0.006,-0.029,0.000,-0.001,-0.015,0.017,0.000,-0.008,0.073
9.3,-0.013,0.020,0.000,-0.001,-0.015,0.017,0.000,-0.008,0.073
9.3,0.007,-0.020,0.000,-0.001,-0.015,0.017,0.000,-0.008,0.073
9.4,0.006,0.000,0.000,-0.001,-0.015,0.017,0.000,-0.008,0.074
9.4,0.006,-0.029,-0.008,-0.001,-0.016,0.017,0.000,-0.009,0.074
9.4,0.006,0.000,0.001,-0.001,-0.016,0.017,0.000,-0.009,0.075
9.4,0.005,0.000,-0.008,-0.001,-0.016,0.016,0.000,-0.010,0.075
9.4,0.005,-0.010,0.002,-0.001,-0.016,0.016,0.000,-0.010,0.076
9.5,-0.005,0.000,0.002,-0.001,-0.016,0.016,0.000,-0.011,0.076
9.5,0.004,-0.010,0.002,-0.001,-0.016,0.016,0.000,-0.011,0.076
9.5,0.004,0.000,0.002,-0.001,-0.016,0.016,0.000,-0.011,0.077
9.5,-0.005,-0.010,0.002,-0.001,-0.017,0.016,0.000,-0.012,0.077
9.5,-0.004,-0.010,0.002,-0.001,-0.017,0.016,0.000,-0.012,0.078
9.6,-0.004,-0.020,0.002,-0.001,-0.017,0.016,-0.000,-0.013,0.078
9.6,0.005,0.000,0.002,-0.001,-0.017,0.016,-0.000,-0.013,0.078
9.6,-0.004,-0.020,0.002,-0.001,-0.017,0.016,-0.000,-0.014,0.079
9.6,0.005,0.010,0.002,-0.001,-0.018,0.016,-0.000,-0.014,0.079
9.6,0.005,-0.020,0.002,-0.001,-0.018,0.016,-0.000,-0.014,0.080
9.7,0.005,0.000,-0.008,-0.001,-0.018,0.016,-0.000,-0.015,0.080
9.7,0.004,0.039,0.001,-0.001,-0.018,0.016,-0.000,-0.015,0.080
9.7,-0.005,0.010,0.001,-0.001,-0.018,0.016,-0.000,-0.015,0.081
9.7,-0.004,0.039,-0.008,-0.001,-0.018,0.016,-0.000,-0.016,0.081
9.7,0.005,0.010,0.002,-0.001,-0.018,0.016,-0.000,-0.017,0.082
9.8,-0.004,0.029,-0.008,-0.001,-0.018,0.016,-0.000,-0.017,0.082
9.8,-0.004,0.020,0.002,-0.001,-0.018,0.016,-0.000,-0.017,0.082
9.8,-0.013,0.029,-0.007,-0.001,-0.017,0.016,-0.000,-0.018,0.083
9.8,0.007,0.020,0.002,-0.001,-0.017,0.016,-0.000,-0.018,0.083
9.8,0.006,0.039,0.002,-0.001,-0.017,0.016,-0.000,-0.019,0.084
9.9,0.006,0.020,-0.016,-0.001,-0.016,0.016,-0.000,-0.019,0.084
9.9,0.006,0.039,-0.006,-0.001,-0.016,0.016,-0.000,-0.020,0.084
9.9,-0.004,0.029,-0.005,-0.001,-0.016,0.016,-0.000,-0.020,0.085
9.9,0.005,0.039,-0.005,-0.001,-0.015,0.016,-0.000,-0.021,0.085
9.9,-0.004,0.029,0.005,-0.001,-0.015,0.015,-0.000,-0.021,0.086
10.0,0.005,0.020,0.004,-0.001,-0.014,0.015,-0.000,-0.021,0.086
10.0,0.005,0.029,-0.015,-0.001,-0.014,0.015,-0.000,-0.021,0.086
10.0,0.005,0.029,-0.003,-0.001,-0.013,0.015,-0.000,-0.022,0.087
10.0,-0.013,0.020,-0.003,-0.001,-0.012,0.015,-0.000,-0.022,0.087
10.0,-0.003,0.010,0.007,-0.001,-0.012,0.015,-0.000,-0.022,0.088
10.1,-0.003,0.029,0.006,-0.001,-0.012,0.015,-0.000,-0.023,0.088
10.1,0.007,0.020,0.006,-0.001,-0.011,0.015,-0.000,-0.023,0.088
10.1,-0.002,0.029,-0.003,-0.001,-0.010,0.015,-0.001,-0.023,0.089
10.1,0.007,0.010,0.006,-0.001,-0.010,0.015,-0.001,-0.024,0.089
10.1,-0.003,0.039,0.006,-0.001,-0.010,0.015,-0.001,-0.024,0.089
10.2,0.006,0.029,-0.012,-0.001,-0.009,0.015,-0.001,-0.024,0.090
10.2,-0.003,0.020,0.006,-0.001,-0.008,0.015,-0.001,-0.024,0.090
10.2,0.006,0.020,-0.003,-0.001,-0.008,0.015,-0.001,-0.024,0.091
10.2,-0.004,0.029,-0.001,-0.001,-0.007,0.015,-0.001,-0.025,0.091
10.2,0.005,0.010,-0.001,-0.001,-0.007,0.015,-0.001,-0.025,0.091
10.3,0.005,0.020,0.008,-0.001,-0.006,0.014,-0.001,-0.025,0.092
10.3,0.006,0.010,-0.000,-0.001,-0.006,0.014,-0.001,-0.025,0.092
10.3,-0.004,0.029,0.009,-0.001,-0.005,0.014,-0.001,-0.025,0.093
10.3,0.006,0.029,-0.001,-0.000,-0.005,0.014,-0.001,-0.025,0.093
10.3,-0.004,0.039,0.008,-0.000,-0.004,0.014,-0.001,-0.026,0.093
10.4,-0.004,-0.010,-0.029,-0.000,-0.003,0.014,-0.001,-0.026,0.094
10.4,0.006,0.020,0.011,-0.000,-0.003,0.014,-0.001,-0.026,0.094
10.4,0.005,0.039,0.001,-0.000,-0.003,0.014,-0.001,-0.026,0.094
10.4,0.005,0.029,0.010,-0.000,-0.002,0.014,-0.001,-0.026,0.095
10.4,0.005,0.000,0.010,-0.000,-0.001,0.014,-0.001,-0.026,0.095
10.5,-0.013,0.000,0.009,-0.000,-0.001,0.014,-0.001,-0.026,0.095
10.5,0.006,0.010,0.009,-0.000,-0.001,0.014,-0.001,-0.026,0.096
10.5,-0.014,-0.020,-0.010,-0.000,-0.000,0.014,-0.001,-0.026,0.096
10.5,0.005,0.000,-0.009,-0.000,0.000,0.014,-0.001,-0.026,0.097
10.5,0.005,-0.010,0.010,-0.000,0.000,0.014,-0.001,-0.026,0.097
10.6,-0.004,0.010,0.010,-0.000,0.000,0.015,-0.001,-0.026,0.097
10.6,-0.004,-0.010,-0.000,-0.000,0.001,0.015,-0.001,-0.026,0.098
10.6,0.006,0.020,0.010,-0.000,0.001,0.015,-0.001,-0.026,0.098
10.6,0.005,0.010,0.009,-0.000,0.001,0.015,-0.001,-0.026,0.098
10.6,0.005,0.010,-0.001,-0.000,0.001,0.015,-0.001,-0.026,0.099
10.7,-0.005,-0.020,0.009,-0.000,0.001,0.015,-0.001,-0.026,0.099
10.7,0.004,0.000,-0.001,-0.000,0.002,0.015,-0.001,-0.026,0.099
10.7,0.004,0.000,-0.010,-0.000,0.002,0.015,-0.001,-0.026,0.100
10.7,-0.006,0.010,0.008,-0.000,0.002,0.015,-0.001,-0.026,0.100
10.7,-0.005,0.020,-0.010,-0.000,0.002,0.015,-0.001,-0.026,0.101
10.8,0.004,0.020,-0.000,-0.000,0.002,0.015,-0.001,-0.026,0.101
10.8,0.004,0.000,0.009,-0.000,0.002,0.015,-0.001,-0.026,0.102
10.8,0.004,0.010,0.008,-0.000,0.002,0.015,-0.001,-0.025,0.102
10.8,0.003,0.000,-0.010,0.000,0.003,0.015,-0.001,-0.025,0.103
10.8,-0.006,-0.029,-0.010,0.000,0.003,0.015,-0.001,-0.025,0.103
10.9,0.003,-0.127,-0.002,0.000,0.003,0.015,-0.001,-0.025,0.103
10.9,0.003,0.029,-0.029,0.000,0.002,0.015,-0.001,-0.025,0.104
10.9,0.013,0.029,0.020,0.000,0.002,0.015,-0.001,-0.025,0.104
10.9,-0.027,-0.039,-0.037,0.000,0.002,0.015,-0.001,-0.025,0.105
10.9,0.002,0.020,0.011,0.000,0.002,0.015,-0.001,-0.025,0.105
11.0,0.002,-0.029,0.001,0.000,0.002,0.015,-0.001,-0.025,0.105
11.0,-0.007,0.029,0.010,0.000,0.002,0.015,-0.001,-0.025,0.106
11.0,-0.015,-0.010,-0.009,0.000,0.002,0.015,-0.001,-0.025,0.106
11.0,0.004,0.000,0.011,0.000,0.002,0.015,-0.001,-0.025,0.107
11.0,0.004,0.000,0.010,0.000,0.002,0.015,-0.001,-0.025,0.107
11.1,0.004,-0.029,0.000,0.000,0.001,0.015,-0.001,-0.025,0.107
11.1,-0.006,-0.020,0.000,0.000,0.001,0.015,-0.001,-0.025,0.108
11.1,0.003,0.010,0.018,0.000,0.001,0.015,-0.001,-0.025,0.108
11.1,0.003,0.010,0.008,0.000,0.001,0.015,-0.001,-0.025,0.108
11.1,-0.015,0.010,-0.000,0.000,0.001,0.015,-0.001,-0.025,0.109
11.2,0.004,-0.020,0.008,-0.000,0.001,0.015,-0.001,-0.025,0.109
11.2,0.004,0.000,0.008,-0.000,0.001,0.015,-0.001,-0.025,0.110
11.2,0.004,0.010,0.008,-0.000,0.001,0.015,-0.001,-0.025,0.110
11.2,-0.014,0.010,-0.002,-0.000,0.001,0.015,-0.001,-0.025,0.110
11.2,0.005,0.010,0.008,-0.000,0.001,0.016,-0.001,-0.025,0.111
11.3,0.005,0.000,0.007,-0.000,0.000,0.016,-0.001,-0.025,0.111
11.3,-0.005,0.000,-0.002,-0.000,0.000,0.016,-0.001,-0.025,0.111
11.3,0.004,0.000,0.007,-0.000,0.000,0.016,-0.001,-0.025,0.112
11.3,0.004,-0.010,0.006,-0.000,0.000,0.016,-0.001,-0.024,0.112
11.3,-0.006,-0.010,0.006,-0.000,0.000,0.016,-0.001,-0.024,0.113
11.4,0.004,0.010,0.005,-0.000,0.000,0.016,-0.001,-0.024,0.113
11.4,0.003,-0.020,0.005,-0.000,0.000,0.016,-0.001,-0.024,0.114
11.4,0.003,0.010,0.005,-0.000,0.000,0.016,-0.001,-0.024,0.114
11.4,0.003,-0.010,-0.004,-0.000,0.000,0.016,-0.001,-0.024,0.114
11.4,0.003,-0.020,0.005,-0.000,0.000,0.017,-0.001,-0.024,0.115
11.5,0.003,-0.010,-0.004,-0.000,0.000,0.017,-0.001,-0.024,0.115
11.5,-0.006,0.000,0.005,-0.000,0.000,0.017,-0.001,-0.024,0.116
11.5,0.003,-0.010,-0.004,-0.000,0.000,0.017,-0.001,-0.024,0.116
11.5,0.003,0.010,-0.004,-0.000,0.000,0.017,-0.001,-0.024,0.116
11.5,0.003,-0.010,0.005,0.000,-0.000,0.017,-0.001,-0.024,0.117
11.6,-0.007,0.000,0.005,0.000,-0.000,0.017,-0.001,-0.024,0.117
11.6,0.003,0.020,0.005,0.000,-0.000,0.017,-0.001,-0.024,0.118
11.6,0.003,-0.010,0.004,0.000,-0.000,0.017,-0.001,-0.024,0.118
11.6,0.003,-0.039,-0.045,0.000,-0.000,0.017,-0.001,-0.024,0.119
11.6,0.012,0.039,0.004,0.000,-0.000,0.017,-0.001,-0.024,0.119
11.7,0.002,0.000,0.004,0.000,-0.000,0.017,-0.001,-0.024,0.119
11.7,0.003,-0.029,0.004,0.000,-0.000,0.017,-0.001,-0.024,0.120
11.7,-0.006,-0.010,-0.006,0.000,-0.001,0.017,-0.001,-0.024,0.120
11.7,0.004,-0.020,0.004,0.000,-0.001,0.017,-0.001,-0.025,0.121
11.7,0.004,-0.010,0.004,0.000,-0.001,0.017,-0.001,-0.025,0.121
11.8,-0.006,-0.029,-0.006,0.000,-0.001,0.017,-0.001,-0.025,0.121
11.8,-0.005,-0.029,0.003,0.000,-0.001,0.017,-0.001,-0.025,0.122
11.8,-0.005,-0.039,-0.015,0.000,-0.002,0.017,-0.001,-0.025,0.122
11.8,0.005,-0.020,0.005,0.000,-0.002,0.017,-0.001,-0.025,0.123
11.8,0.004,-0.020,0.004,0.000,-0.002,0.017,-0.001,-0.025,0.123
11.9,-0.015,-0.029,-0.005,0.000,-0.003,0.017,-0.001,-0.025,0.123
11.9,0.004,-0.010,0.004,0.000,-0.003,0.017,-0.001,-0.025,0.124
11.9,0.004,-0.039,0.004,0.000,-0.004,0.017,-0.001,-0.025,0.124
11.9,0.004,0.000,0.004,0.000,-0.004,0.017,-0.001,-0.025,0.125
11.9,0.003,-0.020,0.003,0.000,-0.004,0.017,-0.001,-0.025,0.125
12.0,-0.006,-0.010,0.003,0.000,-0.005,0.017,-0.001,-0.025,0.126
12.0,-0.006,-0.029,0.003,0.000,-0.005,0.017,-0.001,-0.025,0.126
12.0,-0.005,-0.010,0.003,0.000,-0.006,0.017,-0.001,-0.025,0.126
12.0,0.004,-0.020,0.003,0.000,-0.006,0.017,-0.001,-0.026,0.127
12.0,0.004,0.000,0.012,0.000,-0.007,0.017,-0.001,-0.026,0.128
12.1,-0.014,-0.029,-0.024,0.000,-0.007,0.017,-0.001,-0.026,0.128
12.1,0.005,-0.020,-0.044,0.000,-0.007,0.017,-0.001,-0.026,0.128
12.1,0.005,-0.029,0.004,0.000,-0.008,0.017,-0.001,-0.026,0.129
12.1,-0.004,-0.029,-0.041,0.000,-0.009,0.017,-0.001,-0.027,0.129
12.1,-0.014,-0.010,0.038,0.000,-0.009,0.017,-0.001,-0.027,0.130
12.2,-0.022,-0.029,0.007,0.000,-0.009,0.017,-0.001,-0.027,0.130
12.2,-0.011,-0.029,0.007,0.000,-0.010,0.017,-0.001,-0.027,0.131
12.2,-0.001,-0.020,0.007,-0.000,-0.010,0.017,-0.001,-0.028,0.131
12.2,0.008,-0.010,0.006,-0.000,-0.011,0.017,-0.001,-0.028,0.131
12.2,-0.012,-0.039,0.006,-0.000,-0.011,0.017,-0.001,-0.028,0.132
12.3,-0.001,-0.020,0.006,-0.000,-0.012,0.017,-0.001,-0.028,0.132
12.3,-0.010,-0.029,0.104,-0.000,-0.012,0.017,-0.001,-0.029,0.133
12.3,-0.010,-0.020,-0.004,-0.001,-0.013,0.017,-0.001,-0.029,0.133
12.3,0.009,-0.010,-0.003,-0.001,-0.013,0.017,-0.001,-0.029,0.133
12.3,-0.010,-0.029,-0.003,-0.001,-0.014,0.018,-0.001,-0.030,0.134
12.4,0.010,-0.020,-0.003,-0.001,-0.014,0.018,-0.001,-0.030,0.134
12.4,-0.009,-0.029,-0.003,-0.001,-0.015,0.018,-0.001,-0.030,0.135
12.4,-0.019,-0.010,0.017,-0.001,-0.015,0.018,-0.001,-0.031,0.135
12.4,-0.008,-0.029,-0.001,-0.001,-0.016,0.018,-0.001,-0.031,0.136
12.4,0.010,-0.010,0.053,-0.001,-0.016,0.018,-0.001,-0.032,0.136
12.5,0.010,0.000,-0.016,-0.001,-0.016,0.018,-0.001,-0.032,0.137
12.5,0.000,0.029,0.021,-0.001,-0.017,0.019,-0.001,-0.032,0.137
12.5,0.000,0.029,-0.007,-0.001,-0.017,0.019,-0.001,-0.033,0.138
12.5,-0.009,0.029,-0.007,-0.001,-0.017,0.019,-0.001,-0.033,0.138
12.5,-0.017,0.010,-0.007,-0.002,-0.017,0.019,-0.001,-0.034,0.138
12.6,-0.007,0.029,0.012,-0.002,-0.017,0.019,-0.001,-0.034,0.139
12.6,-0.007,0.010,-0.018,-0.002,-0.017,0.019,-0.001,-0.035,0.140
12.6,0.012,0.020,-0.007,-0.002,-0.017,0.019,-0.001,-0.035,0.140
12.6,0.012,0.029,0.003,-0.002,-0.016,0.019,-0.001,-0.035,0.140
12.6,0.012,0.029,-0.006,-0.002,-0.016,0.019,-0.001,-0.036,0.141
12.7,0.002,0.020,-0.006,-0.002,-0.016,0.019,-0.001,-0.036,0.141
12.7,0.012,0.010,-0.006,-0.002,-0.016,0.019,-0.001,-0.037,0.142
12.7,-0.007,0.020,0.003,-0.002,-0.015,0.019,-0.001,-0.037,0.142
12.7,-0.006,0.029,-0.006,-0.002,-0.015,0.019,-0.002,-0.037,0.143
12.7,-0.006,0.029,-0.015,-0.002,-0.014,0.019,-0.002,-0.038,0.143
12.8,0.003,0.010,-0.014,-0.002,-0.014,0.019,-0.002,-0.038,0.144
12.8,-0.007,0.039,-0.004,-0.002,-0.014,0.018,-0.002,-0.038,0.144
12.8,0.012,0.000,-0.024,-0.002,-0.013,0.018,-0.002,-0.039,0.145
12.8,0.011,0.039,-0.004,-0.002,-0.013,0.018,-0.002,-0.039,0.145
12.8,-0.028,0.010,-0.004,-0.002,-0.012,0.018,-0.002,-0.039,0.146
12.9,-0.017,0.029,-0.002,-0.002,-0.012,0.018,-0.002,-0.040,0.146
12.9,0.002,0.010,-0.002,-0.002,-0.011,0.018,-0.002,-0.040,0.147
12.9,-0.007,0.029,-0.002,-0.002,-0.011,0.017,-0.002,-0.040,0.147
12.9,-0.007,0.029,-0.019,-0.002,-0.010,0.017,-0.002,-0.041,0.147
12.9,-0.015,0.049,0.000,-0.003,-0.009,0.017,-0.002,-0.041,0.148
13.0,-0.015,0.010,-0.019,-0.003,-0.009,0.017,-0.002,-0.041,0.148
13.0,-0.005,0.020,-0.009,-0.003,-0.009,0.017,-0.002,-0.041,0.149
13.0,-0.015,0.029,-0.009,-0.003,-0.008,0.017,-0.002,-0.041,0.149
13.0,0.004,0.020,0.001,-0.003,-0.008,0.016,-0.002,-0.042,0.149
13.0,-0.023,0.020,-0.017,-0.003,-0.007,0.016,-0.003,-0.042,0.150
13.1,-0.003,0.020,0.002,-0.003,-0.006,0.016,-0.003,-0.042,0.150
13.1,0.006,0.029,0.002,-0.004,-0.006,0.016,-0.003,-0.042,0.151
13.1,-0.003,0.010,0.002,-0.004,-0.005,0.016,-0.003,-0.042,0.151
13.1,0.006,0.029,-0.008,-0.004,-0.005,0.016,-0.003,-0.042,0.152
13.1,0.015,0.020,-0.016,-0.004,-0.004,0.016,-0.003,-0.043,0.152
13.2,-0.044,0.029,0.004,-0.004,-0.004,0.016,-0.003,-0.043,0.152
13.2,-0.024,0.020,-0.006,-0.004,-0.003,0.015,-0.003,-0.043,0.153
13.2,-0.004,0.029,-0.005,-0.005,-0.002,0.015,-0.003,-0.043,0.153
13.2,0.006,0.000,-0.015,-0.005,-0.002,0.015,-0.003,-0.043,0.153
13.2,-0.012,0.029,-0.005,-0.005,-0.002,0.015,-0.003,-0.043,0.154
13.3,-0.002,-0.020,-0.004,-0.005,-0.001,0.015,-0.004,-0.043,0.154
13.3,0.007,0.000,-0.004,-0.005,-0.000,0.015,-0.004,-0.043,0.155
13.3,-0.011,0.020,-0.013,-0.005,-0.000,0.015,-0.004,-0.043,0.155
13.3,-0.019,-0.020,0.006,-0.006,0.000,0.014,-0.004,-0.043,0.156
13.3,-0.009,0.000,-0.004,-0.006,0.000,0.014,-0.004,-0.043,0.156
13.4,0.018,0.000,0.005,-0.006,0.001,0.014,-0.004,-0.043,0.156
13.4,-0.011,-0.020,0.005,-0.006,0.001,0.014,-0.004,-0.043,0.156
13.4,-0.001,-0.039,0.008,-0.006,0.001,0.014,-0.005,-0.043,0.157
13.4,-0.019,0.010,0.007,-0.007,0.001,0.014,-0.005,-0.043,0.157
13.4,-0.009,-0.010,0.007,-0.007,0.001,0.014,-0.005,-0.043,0.158
13.5,0.000,-0.010,0.006,-0.007,0.001,0.014,-0.005,-0.043,0.158
13.5,-0.008,-0.029,0.006,-0.007,0.001,0.014,-0.005,-0.043,0.158
13.5,0.011,-0.020,0.006,-0.007,0.001,0.014,-0.006,-0.043,0.159
13.5,-0.008,-0.010,-0.013,-0.007,0.001,0.014,-0.006,-0.043,0.159
13.5,-0.008,-0.010,-0.003,-0.007,0.001,0.014,-0.006,-0.043,0.159
13.6,-0.017,0.000,0.006,-0.008,0.001,0.014,-0.006,-0.043,0.160
13.6,0.011,-0.029,0.006,-0.008,0.000,0.014,-0.006,-0.043,0.160
13.6,-0.008,0.000,-0.014,-0.008,0.000,0.014,-0.006,-0.043,0.160
13.6,0.003,-0.010,0.007,-0.008,0.000,0.014,-0.007,-0.043,0.161
13.6,-0.006,0.000,0.006,-0.008,-0.000,0.014,-0.007,-0.043,0.161
13.7,-0.026,-0.010,0.006,-0.008,-0.000,0.014,-0.007,-0.043,0.161
13.7,-0.005,-0.010,-0.003,-0.009,-0.000,0.014,-0.007,-0.043,0.162
13.7,-0.014,-0.010,-0.003,-0.009,-0.001,0.014,-0.008,-0.043,0.162
13.7,0.005,0.000,0.007,-0.009,-0.001,0.014,-0.008,-0.043,0.163
13.7,0.014,-0.020,-0.002,-0.009,-0.001,0.014,-0.008,-0.043,0.163
13.8,0.013,0.000,0.007,-0.009,-0.001,0.014,-0.008,-0.043,0.163
13.8,-0.026,-0.020,-0.003,-0.010,-0.001,0.014,-0.009,-0.043,0.164
13.8,-0.006,0.000,0.006,-0.010,-0.002,0.014,-0.009,-0.043,0.164
13.8,-0.006,0.000,0.006,-0.010,-0.002,0.014,-0.009,-0.043,0.164
13.8,-0.015,0.000,0.006,-0.010,-0.002,0.014,-0.009,-0.043,0.165
13.9,0.004,-0.010,0.006,-0.010,-0.002,0.014,-0.010,-0.043,0.165
13.9,-0.005,0.000,0.006,-0.010,-0.002,0.014,-0.010,-0.043,0.165
13.9,-0.005,0.000,-0.004,-0.010,-0.002,0.014,-0.010,-0.043,0.166
13.9,-0.004,-0.010,0.006,-0.011,-0.003,0.014,-0.010,-0.043,0.166
13.9,-0.004,0.010,-0.004,-0.011,-0.003,0.014,-0.011,-0.043,0.166
14.0,0.005,-0.020,0.005,-0.011,-0.003,0.014,-0.011,-0.043,0.167
14.0,0.005,-0.010,-0.005,-0.011,-0.003,0.014,-0.011,-0.043,0.167
14.0,0.005,-0.010,-0.003,-0.011,-0.004,0.015,-0.011,-0.044,0.168
14.0,0.005,-0.010,0.006,-0.011,-0.004,0.015,-0.012,-0.044,0.168
14.0,-0.005,0.000,0.006,-0.011,-0.004,0.015,-0.012,-0.044,0.168
14.1,0.004,0.000,0.005,-0.011,-0.004,0.015,-0.012,-0.044,0.169
14.1,-0.014,0.000,-0.004,-0.011,-0.004,0.015,-0.013,-0.044,0.169
14.1,-0.005,-0.010,-0.004,-0.011,-0.004,0.015,-0.013,-0.044,0.169
14.1,0.005,-0.020,0.005,-0.011,-0.005,0.015,-0.013,-0.044,0.170
14.1,0.005,0.020,-0.004,-0.011,-0.005,0.015,-0.013,-0.044,0.170
14.2,-0.005,0.000,-0.014,-0.011,-0.005,0.015,-0.014,-0.044,0.171
14.2,-0.004,0.010,0.005,-0.011,-0.005,0.015,-0.014,-0.044,0.171
14.2,-0.004,0.000,0.005,-0.011,-0.005,0.015,-0.014,-0.045,0.171
14.2,-0.014,0.010,0.005,-0.011,-0.005,0.015,-0.015,-0.045,0.172
14.2,-0.004,0.010,-0.005,-0.011,-0.005,0.015,-0.015,-0.045,0.172
14.3,0.006,0.000,-0.005,-0.011,-0.005,0.015,-0.015,-0.045,0.172
14.3,0.026,0.010,0.005,-0.011,-0.005,0.015,-0.015,-0.045,0.173
14.3,-0.003,-0.020,0.004,-0.011,-0.005,0.015,-0.016,-0.045,0.173
14.3,-0.013,0.029,0.004,-0.011,-0.005,0.015,-0.016,-0.045,0.174
14.3,-0.003,0.000,0.004,-0.011,-0.005,0.015,-0.016,-0.045,0.174
14.4,-0.002,0.029,0.003,-0.011,-0.005,0.015,-0.017,-0.046,0.174
14.4,0.017,-0.020,0.003,-0.011,-0.005,0.015,-0.017,-0.046,0.175
14.4,-0.002,0.000,-0.006,-0.011,-0.005,0.015,-0.017,-0.046,0.175
14.4,0.016,-0.010,0.004,-0.011,-0.005,0.015,-0.017,-0.046,0.176
14.4,-0.004,0.000,0.004,-0.011,-0.005,0.015,-0.018,-0.046,0.176
14.5,0.005,0.000,0.003,-0.011,-0.005,0.015,-0.018,-0.046,0.176
14.5,0.015,0.010,0.003,-0.011,-0.005,0.015,-0.018,-0.046,0.177
14.5,-0.006,0.010,0.003,-0.011,-0.004,0.015,-0.019,-0.046,0.177
14.5,0.004,0.010,-0.006,-0.011,-0.004,0.015,-0.019,-0.047,0.177
14.5,-0.016,0.010,-0.006,-0.011,-0.004,0.015,-0.019,-0.047,0.178
14.6,-0.005,0.000,0.003,-0.011,-0.004,0.015,-0.019,-0.047,0.178
14.6,-0.005,0.000,-0.006,-0.011,-0.004,0.015,-0.020,-0.047,0.179
14.6,-0.034,0.020,-0.055,-0.011,-0.004,0.015,-0.020,-0.047,0.179
14.6,0.022,-0.029,0.004,-0.011,-0.004,0.015,-0.020,-0.047,0.179
14.6,-0.024,-0.020,-0.023,-0.011,-0.004,0.015,-0.021,-0.047,0.180
14.7,-0.005,0.020,0.006,-0.011,-0.004,0.015,-0.021,-0.047,0.180
14.7,0.004,0.020,0.005,-0.012,-0.004,0.015,-0.021,-0.047,0.180
14.7,0.004,-0.010,-0.004,-0.012,-0.003,0.015,-0.021,-0.047,0.181
14.7,-0.023,0.000,-0.013,-0.012,-0.003,0.015,-0.022,-0.047,0.181
14.7,-0.003,0.000,0.006,-0.012,-0.003,0.015,-0.022,-0.048,0.182
14.8,0.017,0.020,0.006,-0.012,-0.003,0.015,-0.022,-0.048,0.182
14.8,0.006,-0.010,-0.003,-0.012,-0.003,0.014,-0.022,-0.048,0.182
14.8,-0.003,0.039,0.006,-0.012,-0.003,0.014,-0.023,-0.048,0.183
14.8,-0.003,-0.010,-0.003,-0.012,-0.003,0.014,-0.023,-0.048,0.183
14.8,-0.003,0.010,0.006,-0.012,-0.003,0.014,-0.023,-0.048,0.183
14.9,0.026,-0.010,0.006,-0.012,-0.003,0.014,-0.024,-0.048,0.184
14.9,-0.003,0.010,0.005,-0.012,-0.002,0.014,-0.024,-0.048,0.184
14.9,0.006,-0.010,0.005,-0.012,-0.002,0.014,-0.024,-0.048,0.185
14.9,-0.003,0.010,-0.005,-0.012,-0.002,0.014,-0.025,-0.048,0.185
14.9,-0.012,0.000,-0.004,-0.013,-0.002,0.014,-0.025,-0.048,0.185
15.0,0.008,0.010,0.005,-0.013,-0.002,0.014,-0.025,-0.048,0.185
15.0,-0.011,0.000,0.005,-0.013,-0.002,0.014,-0.025,-0.048,0.186
15.0,0.008,0.000,0.004,-0.013,-0.002,0.014,-0.026,-0.048,0.186
15.0,-0.012,0.020,-0.005,-0.013,-0.002,0.014,-0.026,-0.048,0.187
15.0,-0.002,-0.010,0.004,-0.013,-0.002,0.014,-0.026,-0.048,0.187
15.1,-0.002,0.000,-0.015,-0.013,-0.002,0.014,-0.027,-0.049,0.187
15.1,-0.002,-0.010,-0.005,-0.013,-0.002,0.014,-0.027,-0.049,0.187
15.1,0.016,0.010,0.004,-0.013,-0.002,0.014,-0.028,-0.049,0.188
15.1,-0.003,-0.020,-0.015,-0.013,-0.002,0.014,-0.028,-0.049,0.188
15.1,-0.003,0.010,0.004,-0.013,-0.002,0.014,-0.028,-0.049,0.189
15.2,-0.003,0.000,0.004,-0.013,-0.002,0.014,-0.028,-0.049,0.189
15.2,-0.022,0.020,0.003,-0.013,-0.002,0.014,-0.029,-0.049,0.189
15.2,0.007,-0.010,0.003,-0.013,-0.002,0.014,-0.029,-0.049,0.190
15.2,0.007,0.000,-0.006,-0.013,-0.002,0.014,-0.029,-0.049,0.190
15.2,-0.003,-0.010,0.004,-0.013,-0.002,0.014,-0.030,-0.049,0.191
15.3,-0.003,-0.010,0.003,-0.013,-0.002,0.014,-0.030,-0.049,0.191
15.3,0.007,0.000,0.003,-0.013,-0.002,0.014,-0.030,-0.049,0.191
15.3,0.006,-0.020,0.003,-0.013,-0.002,0.014,-0.031,-0.049,0.191
15.3,0.006,0.000,0.003,-0.013,-0.002,0.014,-0.031,-0.049,0.192
15.3,0.006,-0.020,0.003,-0.013,-0.002,0.014,-0.031,-0.049,0.192
15.4,-0.012,0.010,-0.006,-0.013,-0.002,0.014,-0.032,-0.049,0.192
15.4,0.015,0.000,0.003,-0.013,-0.002,0.014,-0.032,-0.049,0.193
15.4,-0.004,0.000,0.003,-0.013,-0.002,0.014,-0.033,-0.049,0.193
15.4,-0.004,-0.010,-0.006,-0.013,-0.002,0.014,-0.033,-0.049,0.194
15.4,-0.013,0.020,0.004,-0.013,-0.002,0.014,-0.033,-0.049,0.194
15.5,-0.003,-0.010,0.003,-0.014,-0.002,0.014,-0.033,-0.049,0.194
15.5,0.006,0.020,-0.006,-0.014,-0.002,0.014,-0.034,-0.050,0.194
15.5,-0.002,0.010,-0.007,-0.014,-0.002,0.014,-0.034,-0.050,0.195
15.5,0.007,0.000,-0.006,-0.014,-0.002,0.014,-0.034,-0.050,0.195
15.5,-0.012,-0.010,-0.005,-0.014,-0.002,0.014,-0.035,-0.050,0.196
15.6,0.008,0.010,0.004,-0.014,-0.002,0.014,-0.035,-0.050,0.196
15.6,0.007,0.000,0.004,-0.014,-0.002,0.014,-0.036,-0.050,0.196
15.6,-0.012,-0.010,-0.006,-0.014,-0.002,0.014,-0.036,-0.050,0.197
15.6,0.007,0.029,0.003,-0.014,-0.002,0.014,-0.036,-0.050,0.197
15.6,-0.003,0.000,-0.006,-0.014,-0.002,0.014,-0.036,-0.050,0.197
15.7,-0.003,0.029,0.003,-0.014,-0.001,0.014,-0.037,-0.050,0.198
15.7,-0.003,-0.010,-0.006,-0.014,-0.001,0.014,-0.037,-0.050,0.198
15.7,-0.002,0.020,0.004,-0.014,-0.001,0.014,-0.038,-0.050,0.198
15.7,-0.011,0.020,0.003,-0.014,-0.001,0.014,-0.038,-0.050,0.199
15.7,0.018,0.000,0.003,-0.014,-0.001,0.014,-0.038,-0.050,0.199
15.8,-0.011,0.020,0.013,-0.014,-0.001,0.014,-0.039,-0.050,0.199
15.8,0.017,0.000,0.003,-0.014,-0.000,0.014,-0.039,-0.050,0.200
15.8,-0.003,0.029,0.003,-0.014,-0.000,0.014,-0.039,-0.050,0.200
15.8,0.006,0.000,0.003,-0.014,-0.000,0.014,-0.039,-0.050,0.200
15.8,0.006,0.000,0.003,-0.014,0.000,0.014,-0.040,-0.050,0.201
15.9,-0.012,0.039,0.002,-0.014,0.000,0.014,-0.040,-0.050,0.201
15.9,0.007,0.020,0.002,-0.014,0.001,0.014,-0.041,-0.050,0.201
15.9,-0.013,0.020,0.002,-0.014,0.001,0.014,-0.041,-0.050,0.202
15.9,-0.012,0.010,0.002,-0.014,0.001,0.014,-0.041,-0.050,0.202
15.9,-0.002,0.020,0.002,-0.014,0.002,0.014,-0.041,-0.050,0.202
16.0,0.006,0.000,0.003,-0.014,0.002,0.014,-0.042,-0.050,0.203
16.0,0.006,0.029,0.002,-0.014,0.002,0.014,-0.042,-0.050,0.203
16.0,-0.014,0.010,0.002,-0.014,0.002,0.014,-0.043,-0.050,0.203
16.0,0.005,0.010,0.002,-0.014,0.003,0.015,-0.043,-0.050,0.204
16.0,-0.004,0.010,0.002,-0.014,0.003,0.015,-0.044,-0.050,0.204
16.1,0.006,0.020,0.002,-0.014,0.003,0.015,-0.044,-0.050,0.205
16.1,-0.004,0.029,0.002,-0.014,0.004,0.015,-0.044,-0.050,0.205
16.1,-0.012,0.010,0.002,-0.014,0.004,0.015,-0.045,-0.049,0.205
16.1,0.007,0.010,0.002,-0.014,0.005,0.015,-0.045,-0.049,0.206
16.1,-0.011,0.020,0.002,-0.014,0.005,0.015,-0.045,-0.049,0.206
16.2,0.018,0.020,0.002,-0.014,0.005,0.015,-0.046,-0.049,0.206
16.2,-0.002,0.029,0.001,-0.014,0.006,0.015,-0.046,-0.049,0.207
16.2,0.016,0.020,0.001,-0.014,0.006,0.015,-0.046,-0.049,0.207
16.2,0.016,0.000,0.001,-0.014,0.006,0.015,-0.047,-0.049,0.208
16.2,-0.003,0.020,0.001,-0.014,0.006,0.015,-0.047,-0.049,0.208
16.3,0.006,0.010,0.001,-0.014,0.007,0.015,-0.048,-0.048,0.208
16.3,-0.004,0.020,0.001,-0.014,0.007,0.015,-0.048,-0.048,0.209
16.3,-0.003,0.000,0.001,-0.014,0.008,0.015,-0.048,-0.048,0.209
16.3,-0.003,0.029,0.001,-0.014,0.008,0.015,-0.049,-0.048,0.210
16.3,0.006,-0.020,0.001,-0.014,0.008,0.015,-0.049,-0.047,0.210
16.4,0.006,0.029,0.001,-0.014,0.009,0.015,-0.049,-0.047,0.210
16.4,-0.004,0.010,0.001,-0.014,0.009,0.015,-0.049,-0.047,0.211
16.4,0.005,0.020,0.001,-0.014,0.009,0.015,-0.050,-0.047,0.211
16.4,0.014,-0.010,0.001,-0.013,0.010,0.015,-0.050,-0.047,0.212
16.4,-0.006,0.000,0.001,-0.013,0.010,0.015,-0.051,-0.046,0.212
16.5,-0.016,0.000,0.001,-0.013,0.010,0.015,-0.051,-0.046,0.212
16.5,0.003,0.010,0.000,-0.013,0.010,0.015,-0.051,-0.046,0.213
16.5,-0.006,0.000,0.000,-0.013,0.011,0.015,-0.052,-0.045,0.213
16.5,0.004,0.010,0.000,-0.013,0.011,0.015,-0.052,-0.045,0.214
16.5,-0.005,0.010,0.000,-0.013,0.011,0.015,-0.052,-0.045,0.214
16.6,0.013,0.029,0.009,-0.013,0.011,0.015,-0.053,-0.044,0.215
16.6,-0.006,0.010,-0.000,-0.013,0.011,0.015,-0.053,-0.044,0.215
16.6,0.014,0.010,-0.000,-0.013,0.012,0.016,-0.054,-0.044,0.216
16.6,0.003,-0.010,-0.000,-0.013,0.012,0.016,-0.054,-0.044,0.216
16.6,-0.006,0.010,-0.000,-0.013,0.012,0.016,-0.054,-0.043,0.216
16.7,-0.006,0.000,-0.000,-0.013,0.012,0.016,-0.055,-0.043,0.217
16.7,-0.014,0.020,-0.000,-0.013,0.012,0.016,-0.055,-0.043,0.217
16.7,-0.004,-0.010,-0.000,-0.013,0.012,0.016,-0.056,-0.042,0.218
16.7,-0.004,0.020,-0.000,-0.013,0.013,0.016,-0.056,-0.042,0.218
16.7,-0.004,-0.010,-0.000,-0.013,0.013,0.016,-0.056,-0.042,0.218
16.8,-0.003,0.020,-0.000,-0.013,0.013,0.016,-0.057,-0.041,0.219
16.8,0.006,-0.020,-0.000,-0.013,0.013,0.016,-0.057,-0.041,0.219
16.8,-0.003,0.010,-0.000,-0.013,0.013,0.016,-0.057,-0.041,0.220
16.8,0.006,-0.010,-0.000,-0.013,0.013,0.016,-0.058,-0.040,0.220
16.8,-0.004,0.010,-0.000,-0.013,0.013,0.016,-0.058,-0.040,0.221
16.9,-0.003,-0.010,-0.000,-0.013,0.013,0.016,-0.058,-0.040,0.221
16.9,0.006,0.010,-0.000,-0.013,0.013,0.016,-0.058,-0.039,0.221
16.9,0.006,0.010,-0.009,-0.013,0.013,0.016,-0.059,-0.039,0.221
16.9,-0.003,0.000,0.001,-0.013,0.014,0.016,-0.059,-0.038,0.222
16.9,-0.013,0.020,0.001,-0.013,0.014,0.016,-0.060,-0.038,0.222
17.0,0.006,0.010,0.000,-0.013,0.014,0.016,-0.060,-0.038,0.223
17.0,0.005,0.010,0.000,-0.014,0.014,0.016,-0.060,-0.037,0.223
17.0,-0.004,-0.010,0.000,-0.014,0.014,0.016,-0.061,-0.037,0.224
17.0,0.005,0.010,0.000,-0.014,0.014,0.016,-0.061,-0.037,0.224
17.0,-0.005,0.000,0.000,-0.014,0.014,0.016,-0.061,-0.037,0.224
17.1,0.005,0.000,0.000,-0.014,0.014,0.016,-0.062,-0.036,0.225
17.1,0.005,-0.010,0.000,-0.014,0.014,0.016,-0.062,-0.036,0.225
17.1,-0.005,0.020,0.000,-0.014,0.014,0.016,-0.062,-0.035,0.226
17.1,-0.004,-0.010,-0.009,-0.014,0.014,0.016,-0.062,-0.035,0.226
17.1,0.005,-0.010,0.001,-0.014,0.014,0.016,-0.063,-0.035,0.226
17.2,-0.013,0.010,-0.008,-0.014,0.014,0.016,-0.063,-0.035,0.226
17.2,0.006,0.000,0.002,-0.014,0.014,0.016,-0.064,-0.034,0.227
17.2,-0.004,0.000,-0.008,-0.014,0.014,0.016,-0.064,-0.034,0.227
17.2,0.005,-0.049,0.002,-0.014,0.014,0.016,-0.064,-0.033,0.228
17.2,0.005,-0.029,0.002,-0.014,0.014,0.016,-0.064,-0.033,0.228
17.3,-0.013,0.000,0.001,-0.014,0.014,0.016,-0.065,-0.033,0.228
17.3,-0.003,-0.029,0.001,-0.014,0.014,0.016,-0.065,-0.033,0.229
17.3,-0.003,0.000,0.001,-0.014,0.014,0.016,-0.066,-0.032,0.229
17.3,0.006,-0.020,0.001,-0.014,0.013,0.016,-0.066,-0.032,0.230
17.3,-0.003,-0.010,-0.008,-0.014,0.013,0.016,-0.066,-0.031,0.230
17.4,-0.012,-0.039,0.001,-0.014,0.013,0.016,-0.066,-0.031,0.230
17.4,0.007,-0.029,0.001,-0.014,0.012,0.016,-0.067,-0.031,0.231
17.4,0.007,-0.029,0.001,-0.014,0.012,0.016,-0.067,-0.030,0.231
17.4,0.006,-0.010,0.001,-0.014,0.012,0.016,-0.067,-0.030,0.231
17.4,-0.013,-0.010,0.001,-0.014,0.012,0.016,-0.068,-0.030,0.232
17.5,-0.003,-0.029,0.001,-0.014,0.011,0.016,-0.068,-0.030,0.232
17.5,-0.003,-0.020,0.001,-0.014,0.011,0.016,-0.069,-0.029,0.233
17.5,-0.013,-0.029,0.001,-0.014,0.010,0.016,-0.069,-0.029,0.233
17.5,0.006,0.010,0.001,-0.014,0.010,0.016,-0.069,-0.029,0.233
17.5,-0.004,-0.029,-0.009,-0.014,0.010,0.016,-0.069,-0.029,0.234
17.6,-0.003,-0.010,0.001,-0.014,0.009,0.016,-0.070,-0.028,0.234
17.6,0.006,-0.020,0.001,-0.014,0.009,0.016,-0.070,-0.028,0.235
17.6,-0.014,0.000,0.000,-0.014,0.009,0.016,-0.071,-0.028,0.235
17.6,-0.003,-0.020,0.000,-0.014,0.008,0.016,-0.071,-0.028,0.236
17.6,0.006,0.000,0.000,-0.014,0.008,0.016,-0.071,-0.027,0.236
17.7,0.006,-0.029,0.000,-0.014,0.008,0.016,-0.072,-0.027,0.236
17.7,-0.004,-0.010,0.000,-0.014,0.007,0.016,-0.072,-0.027,0.237
17.7,0.014,-0.039,0.000,-0.014,0.007,0.016,-0.073,-0.027,0.237
17.7,-0.015,0.000,0.000,-0.014,0.006,0.016,-0.073,-0.027,0.237
17.7,-0.005,-0.020,0.000,-0.014,0.006,0.016,-0.073,-0.027,0.238
17.8,-0.004,-0.010,0.000,-0.015,0.006,0.016,-0.074,-0.026,0.238
17.8,0.005,-0.020,0.000,-0.015,0.005,0.016,-0.074,-0.026,0.239
17.8,0.014,-0.029,0.000,-0.015,0.005,0.016,-0.074,-0.026,0.239
17.8,-0.005,0.000,0.000,-0.015,0.005,0.016,-0.075,-0.026,0.239
17.8,-0.005,0.010,0.000,-0.015,0.004,0.016,-0.075,-0.026,0.240
17.9,-0.014,-0.039,-0.009,-0.015,0.004,0.016,-0.075,-0.026,0.240
17.9,0.006,-0.010,0.001,-0.015,0.003,0.016,-0.076,-0.026,0.241
17.9,0.014,0.000,0.001,-0.015,0.003,0.016,-0.076,-0.026,0.241
17.9,0.004,-0.020,0.001,-0.015,0.002,0.016,-0.077,-0.026,0.242
17.9,0.014,-0.010,0.001,-0.015,0.002,0.016,-0.077,-0.026,0.242
18.0,-0.005,-0.039,0.001,-0.015,0.002,0.016,-0.077,-0.025,0.242
18.0,-0.005,-0.010,0.001,-0.015,0.001,0.016,-0.078,-0.025,0.243
18.0,-0.005,0.000,0.001,-0.015,0.001,0.016,-0.078,-0.025,0.243
18.0,0.015,0.010,0.001,-0.015,0.000,0.016,-0.079,-0.025,0.244
18.0,-0.004,0.000,0.001,-0.014,0.000,0.016,-0.079,-0.025,0.244
18.1,0.014,-0.010,0.000,-0.014,-0.000,0.016,-0.080,-0.025,0.245
18.1,-0.005,0.029,-0.009,-0.014,-0.000,0.016,-0.080,-0.025,0.245
18.1,-0.014,0.010,0.000,-0.014,-0.000,0.016,-0.080,-0.025,0.245
18.1,-0.003,-0.020,-0.008,-0.014,-0.000,0.016,-0.081,-0.025,0.246
18.1,0.006,0.010,0.001,-0.014,-0.000,0.016,-0.081,-0.025,0.246
18.2,-0.014,0.029,-0.008,-0.014,-0.000,0.016,-0.082,-0.025,0.247
18.2,-0.004,0.010,0.001,-0.014,-0.000,0.016,-0.082,-0.025,0.247
18.2,0.006,0.000,0.001,-0.014,-0.000,0.016,-0.082,-0.025,0.248
18.2,0.006,0.010,0.001,-0.014,0.000,0.016,-0.083,-0.025,0.248
18.2,-0.003,0.020,0.001,-0.014,0.000,0.016,-0.083,-0.025,0.248
18.3,-0.003,0.010,0.001,-0.014,0.001,0.016,-0.084,-0.025,0.249
18.3,0.017,0.020,0.001,-0.014,0.001,0.015,-0.084,-0.025,0.249
18.3,-0.003,0.039,0.002,-0.014,0.001,0.015,-0.084,-0.025,0.250
18.3,-0.011,-0.010,-0.007,-0.014,0.001,0.015,-0.085,-0.025,0.250
18.3,0.018,0.000,0.002,-0.014,0.001,0.015,-0.085,-0.025,0.251
18.4,-0.001,0.039,-0.007,-0.014,0.002,0.015,-0.085,-0.025,0.251
18.4,-0.001,0.010,0.003,-0.014,0.002,0.015,-0.086,-0.025,0.252
18.4,0.008,0.029,0.003,-0.014,0.002,0.015,-0.086,-0.025,0.252
18.4,0.008,0.000,-0.006,-0.014,0.003,0.015,-0.086,-0.025,0.252
18.4,-0.012,0.020,-0.006,-0.014,0.003,0.015,-0.087,-0.025,0.252
18.5,0.016,0.029,0.003,-0.014,0.003,0.015,-0.087,-0.025,0.253
18.5,-0.012,0.020,-0.006,-0.014,0.004,0.015,-0.088,-0.025,0.253
18.5,0.007,0.010,-0.006,-0.014,0.004,0.015,-0.088,-0.025,0.254
18.5,0.016,0.010,0.003,-0.014,0.004,0.015,-0.088,-0.025,0.254
18.5,0.006,0.029,0.003,-0.014,0.005,0.015,-0.088,-0.025,0.254
18.6,-0.003,-0.010,0.003,-0.014,0.005,0.015,-0.089,-0.025,0.255
18.6,-0.003,0.020,0.003,-0.014,0.005,0.015,-0.089,-0.024,0.255
18.6,-0.003,0.000,-0.007,-0.014,0.006,0.015,-0.090,-0.024,0.255
18.6,0.006,-0.010,0.002,-0.014,0.006,0.015,-0.090,-0.024,0.256
18.6,-0.003,-0.010,0.002,-0.014,0.006,0.015,-0.090,-0.024,0.256
18.7,-0.013,0.029,0.002,-0.014,0.007,0.015,-0.091,-0.024,0.257
18.7,-0.003,0.000,0.002,-0.014,0.007,0.015,-0.091,-0.024,0.257
18.7,-0.003,0.000,-0.007,-0.014,0.007,0.015,-0.091,-0.023,0.257
18.7,0.007,0.000,0.003,-0.014,0.008,0.015,-0.092,-0.023,0.258
18.7,-0.003,0.020,0.002,-0.014,0.008,0.015,-0.092,-0.023,0.258
18.8,-0.003,0.000,-0.007,-0.014,0.008,0.015,-0.092,-0.023,0.258
18.8,-0.002,-0.010,-0.017,-0.014,0.008,0.015,-0.093,-0.022,0.259
18.8,-0.002,-0.010,-0.007,-0.014,0.009,0.015,-0.093,-0.022,0.259
18.8,0.007,0.000,0.003,-0.014,0.009,0.014,-0.093,-0.022,0.260
18.8,-0.002,-0.010,-0.015,-0.014,0.009,0.014,-0.094,-0.022,0.260
18.9,-0.002,-0.010,0.004,-0.014,0.009,0.014,-0.094,-0.022,0.260
18.9,0.018,0.020,0.004,-0.014,0.009,0.014,-0.095,-0.021,0.261
18.9,0.007,-0.010,-0.005,-0.014,0.009,0.014,-0.095,-0.021,0.261
18.9,-0.012,-0.020,0.004,-0.014,0.009,0.014,-0.095,-0.021,0.261
18.9,0.005,-0.010,0.004,-0.014,0.009,0.014,-0.096,-0.021,0.262
19.0,-0.013,0.000,0.004,-0.014,0.009,0.014,-0.096,-0.021,0.262
19.0,-0.003,-0.029,0.004,-0.013,0.009,0.014,-0.096,-0.020,0.262
19.0,0.006,0.000,0.003,-0.013,0.009,0.014,-0.096,-0.020,0.263
19.0,0.005,-0.010,0.003,-0.013,0.008,0.014,-0.097,-0.020,0.263
19.0,-0.004,0.000,0.003,-0.013,0.008,0.014,-0.097,-0.020,0.264
19.1,-0.004,-0.020,-0.006,-0.013,0.008,0.014,-0.098,-0.020,0.264
19.1,-0.024,0.000,-0.006,-0.013,0.008,0.014,-0.098,-0.019,0.264
19.1,-0.005,0.000,-0.016,-0.013,0.008,0.014,-0.098,-0.019,0.265
19.1,-0.005,-0.020,0.003,-0.013,0.008,0.014,-0.099,-0.019,0.265
19.1,-0.015,-0.010,0.003,-0.014,0.008,0.014,-0.099,-0.019,0.265
19.2,-0.005,-0.029,0.003,-0.014,0.008,0.014,-0.099,-0.019,0.265
19.2,-0.013,-0.029,0.003,-0.014,0.007,0.014,-0.100,-0.018,0.266
19.2,0.006,-0.010,0.003,-0.014,0.007,0.014,-0.100,-0.018,0.266
19.2,0.006,0.020,0.002,-0.014,0.007,0.014,-0.100,-0.018,0.267
19.2,0.016,-0.039,-0.007,-0.014,0.007,0.014,-0.101,-0.018,0.267
19.3,-0.004,0.010,0.002,-0.014,0.006,0.014,-0.101,-0.018,0.267
19.3,0.006,-0.020,0.002,-0.014,0.006,0.014,-0.101,-0.018,0.268
19.3,-0.014,0.010,-0.008,-0.014,0.006,0.014,-0.102,-0.017,0.268
19.3,0.014,0.000,0.004,-0.014,0.006,0.014,-0.102,-0.017,0.269
19.3,-0.005,0.010,0.004,-0.014,0.005,0.014,-0.102,-0.017,0.269
19.4,0.005,-0.010,0.004,-0.014,0.005,0.014,-0.103,-0.017,0.269
19.4,-0.004,-0.020,-0.005,-0.014,0.005,0.014,-0.103,-0.017,0.269
19.4,0.005,0.000,-0.015,-0.014,0.005,0.014,-0.103,-0.017,0.270
19.4,-0.006,0.000,0.004,-0.013,0.005,0.013,-0.104,-0.017,0.270
19.4,-0.014,0.000,0.004,-0.013,0.005,0.013,-0.104,-0.016,0.270
19.5,0.014,0.000,0.003,-0.013,0.004,0.013,-0.105,-0.016,0.271
19.5,-0.006,-0.010,0.003,-0.013,0.004,0.013,-0.105,-0.016,0.271
19.5,0.004,-0.010,0.003,-0.013,0.004,0.013,-0.105,-0.016,0.271
19.5,-0.006,0.000,0.003,-0.013,0.004,0.013,-0.105,-0.016,0.272
19.5,-0.006,-0.029,-0.015,-0.013,0.004,0.013,-0.106,-0.016,0.272
19.6,-0.006,0.000,0.004,-0.013,0.004,0.013,-0.106,-0.016,0.272
19.6,-0.006,-0.020,0.005,-0.013,0.003,0.013,-0.106,-0.016,0.273
19.6,0.003,-0.020,0.004,-0.013,0.003,0.013,-0.107,-0.016,0.273
19.6,-0.016,-0.020,0.004,-0.013,0.003,0.013,-0.107,-0.016,0.273
19.6,-0.006,-0.020,0.004,-0.013,0.003,0.013,-0.107,-0.016,0.274
19.7,0.014,-0.010,0.004,-0.013,0.003,0.013,-0.108,-0.015,0.274
19.7,-0.016,-0.020,0.004,-0.013,0.002,0.014,-0.108,-0.015,0.274
19.7,-0.005,-0.010,0.012,-0.014,0.002,0.014,-0.108,-0.015,0.275
19.7,0.004,-0.029,0.003,-0.014,0.002,0.014,-0.109,-0.015,0.275
19.7,0.005,0.000,0.002,-0.014,0.001,0.014,-0.109,-0.015,0.276
19.8,0.005,-0.029,0.002,-0.014,0.001,0.014,-0.109,-0.015,0.276
19.8,-0.014,-0.020,0.002,-0.014,0.000,0.014,-0.110,-0.015,0.276
19.8,0.005,-0.010,0.002,-0.014,0.000,0.014,-0.110,-0.015,0.276
19.8,-0.014,-0.020,0.002,-0.014,-0.000,0.014,-0.111,-0.015,0.277
19.8,-0.004,-0.029,0.002,-0.014,-0.001,0.014,-0.111,-0.015,0.277
19.9,-0.012,-0.029,0.002,-0.014,-0.001,0.014,-0.111,-0.015,0.277
19.9,-0.003,-0.010,0.002,-0.014,-0.001,0.014,-0.111,-0.015,0.278
19.9,0.006,-0.029,0.002,-0.014,-0.002,0.014,-0.112,-0.015,0.278
19.9,-0.004,0.010,0.010,-0.014,-0.003,0.014,-0.112,-0.015,0.279
19.9,0.006,-0.029,0.000,-0.014,-0.003,0.014,-0.112,-0.015,0.279
20.0,-0.003,0.010,0.000,-0.014,-0.003,0.014,-0.113,-0.016,0.279
20.0,0.015,-0.010,0.000,-0.014,-0.004,0.014,-0.113,-0.016,0.280
20.0,0.005,-0.010,0.000,-0.014,-0.004,0.015,-0.114,-0.016,0.280
20.0,-0.004,-0.029,0.000,-0.014,-0.004,0.015,-0.114,-0.016,0.280
20.0,0.005,-0.010,0.010,-0.014,-0.005,0.015,-0.114,-0.016,0.281
20.1,-0.004,-0.020,0.000,-0.014,-0.005,0.015,-0.115,-0.016,0.281
20.1,0.005,-0.029,0.000,-0.014,-0.005,0.015,-0.115,-0.016,0.282
20.1,-0.014,-0.010,0.000,-0.014,-0.006,0.015,-0.115,-0.016,0.282
20.1,0.006,-0.010,0.000,-0.014,-0.006,0.015,-0.116,-0.017,0.282
20.1,-0.004,-0.029,0.000,-0.014,-0.007,0.015,-0.116,-0.017,0.283
20.2,-0.004,-0.010,0.000,-0.014,-0.007,0.015,-0.116,-0.017,0.283
20.2,0.005,-0.010,0.000,-0.014,-0.008,0.015,-0.117,-0.017,0.283
20.2,-0.004,0.000,0.000,-0.014,-0.008,0.015,-0.117,-0.017,0.284
20.2,0.016,-0.020,0.000,-0.014,-0.009,0.015,-0.118,-0.017,0.284
20.2,0.005,-0.020,0.000,-0.014,-0.009,0.015,-0.118,-0.018,0.285
20.3,-0.004,-0.010,0.000,-0.014,-0.009,0.015,-0.118,-0.018,0.285
20.3,0.004,-0.010,0.000,-0.014,-0.010,0.015,-0.119,-0.018,0.285
20.3,-0.014,-0.010,0.000,-0.014,-0.010,0.015,-0.119,-0.018,0.286
20.3,0.015,-0.010,0.000,-0.014,-0.011,0.015,-0.119,-0.019,0.286
20.3,-0.004,-0.020,0.000,-0.014,-0.011,0.015,-0.120,-0.019,0.286
20.4,0.005,-0.029,0.000,-0.014,-0.011,0.015,-0.120,-0.019,0.287
20.4,-0.004,-0.020,0.000,-0.014,-0.012,0.015,-0.120,-0.020,0.287
20.4,-0.004,-0.020,0.000,-0.014,-0.012,0.015,-0.121,-0.020,0.288
20.4,0.015,-0.029,0.000,-0.014,-0.012,0.015,-0.121,-0.020,0.288
20.4,-0.005,-0.020,0.000,-0.014,-0.013,0.015,-0.122,-0.021,0.288
20.5,0.005,-0.029,0.000,-0.014,-0.014,0.015,-0.122,-0.021,0.289
20.5,0.005,-0.010,-0.010,-0.014,-0.014,0.015,-0.122,-0.021,0.289
20.5,0.004,-0.049,0.000,-0.014,-0.014,0.015,-0.122,-0.021,0.289
20.5,-0.014,-0.039,-0.009,-0.014,-0.015,0.015,-0.123,-0.022,0.290
20.5,-0.043,0.000,-0.097,-0.014,-0.016,0.015,-0.123,-0.022,0.290
20.6,0.023,-0.010,0.028,-0.014,-0.016,0.015,-0.124,-0.023,0.291
20.6,-0.016,-0.049,-0.031,-0.014,-0.016,0.015,-0.124,-0.023,0.291
20.6,0.014,-0.020,0.029,-0.014,-0.017,0.014,-0.124,-0.024,0.291
20.6,0.004,-0.029,-0.009,-0.014,-0.018,0.014,-0.125,-0.024,0.292
20.6,0.004,-0.039,0.000,-0.014,-0.018,0.014,-0.125,-0.024,0.292
20.7,-0.015,-0.020,0.000,-0.014,-0.019,0.014,-0.125,-0.025,0.292
20.7,-0.013,-0.010,0.000,-0.014,-0.020,0.014,-0.126,-0.025,0.293
20.7,0.006,-0.039,0.000,-0.014,-0.020,0.014,-0.126,-0.026,0.293
20.7,-0.003,-0.039,-0.009,-0.014,-0.021,0.014,-0.126,-0.026,0.293
20.7,-0.003,-0.059,0.001,-0.014,-0.022,0.013,-0.127,-0.027,0.294
20.8,-0.003,-0.010,0.001,-0.014,-0.022,0.013,-0.127,-0.028,0.294
20.8,-0.012,-0.020,0.001,-0.015,-0.023,0.013,-0.128,-0.028,0.294
20.8,0.008,-0.029,0.001,-0.015,-0.024,0.013,-0.128,-0.028,0.295
20.8,-0.002,-0.020,0.001,-0.015,-0.025,0.013,-0.128,-0.029,0.295
20.8,0.016,-0.039,0.001,-0.015,-0.025,0.013,-0.129,-0.030,0.296
20.9,-0.003,-0.020,0.001,-0.015,-0.026,0.013,-0.129,-0.030,0.296
20.9,0.007,-0.029,0.001,-0.015,-0.027,0.013,-0.130,-0.031,0.296
20.9,-0.003,-0.010,-0.017,-0.015,-0.027,0.013,-0.130,-0.032,0.297
20.9,-0.022,-0.029,-0.017,-0.015,-0.028,0.013,-0.130,-0.033,0.297
20.9,-0.011,-0.010,0.003,-0.015,-0.028,0.013,-0.130,-0.033,0.297
21.0,0.007,-0.020,0.002,-0.015,-0.029,0.013,-0.131,-0.034,0.298
21.0,0.007,0.000,0.002,-0.015,-0.029,0.013,-0.131,-0.035,0.298
21.0,-0.002,-0.029,-0.007,-0.015,-0.030,0.013,-0.132,-0.035,0.298
21.0,0.007,-0.020,0.003,-0.015,-0.031,0.013,-0.132,-0.037,0.299
21.0,0.007,-0.029,0.003,-0.015,-0.031,0.013,-0.133,-0.037,0.299
21.1,0.006,-0.020,0.003,-0.015,-0.032,0.013,-0.133,-0.038,0.299
21.1,-0.003,-0.029,-0.007,-0.015,-0.032,0.013,-0.133,-0.038,0.299
21.1,0.007,-0.010,0.002,-0.015,-0.033,0.013,-0.134,-0.040,0.300
21.1,-0.002,-0.029,-0.007,-0.015,-0.033,0.013,-0.134,-0.040,0.300
21.1,-0.012,0.000,-0.007,-0.015,-0.034,0.012,-0.134,-0.041,0.300
21.2,0.007,0.020,0.003,-0.015,-0.034,0.012,-0.135,-0.042,0.301
21.2,-0.002,0.000,-0.006,-0.015,-0.035,0.012,-0.135,-0.043,0.301
21.2,0.007,0.029,0.003,-0.015,-0.035,0.012,-0.136,-0.044,0.301
21.2,0.007,0.000,0.003,-0.015,-0.035,0.012,-0.136,-0.045,0.302
21.2,0.006,0.029,0.003,-0.015,-0.035,0.012,-0.137,-0.046,0.302
21.3,-0.004,0.010,0.003,-0.015,-0.035,0.012,-0.137,-0.047,0.302
21.3,-0.012,0.020,-0.006,-0.015,-0.035,0.012,-0.137,-0.047,0.303
21.3,-0.002,0.029,0.003,-0.015,-0.035,0.012,-0.137,-0.048,0.303
21.3,0.007,0.000,0.003,-0.015,-0.035,0.012,-0.138,-0.049,0.303
21.3,0.015,0.020,0.003,-0.015,-0.035,0.012,-0.138,-0.050,0.304
21.4,-0.004,0.010,0.003,-0.015,-0.035,0.012,-0.139,-0.051,0.304
21.4,-0.004,0.020,0.003,-0.015,-0.035,0.012,-0.139,-0.052,0.304
21.4,0.005,0.020,0.002,-0.015,-0.034,0.012,-0.140,-0.053,0.305
21.4,-0.004,0.010,0.002,-0.015,-0.034,0.012,-0.140,-0.054,0.305
21.4,0.005,0.000,0.002,-0.015,-0.034,0.012,-0.140,-0.054,0.305
21.5,-0.005,0.029,0.002,-0.015,-0.034,0.012,-0.140,-0.055,0.305
21.5,-0.004,0.039,0.002,-0.015,-0.033,0.012,-0.141,-0.056,0.306
21.5,-0.003,0.010,0.002,-0.015,-0.033,0.013,-0.141,-0.057,0.306
21.5,-0.013,0.000,0.002,-0.015,-0.033,0.013,-0.142,-0.058,0.306
21.5,-0.003,0.029,0.002,-0.015,-0.032,0.013,-0.142,-0.058,0.307
21.6,-0.021,-0.010,-0.016,-0.015,-0.032,0.013,-0.143,-0.060,0.307
21.6,0.009,0.029,0.003,-0.016,-0.032,0.013,-0.143,-0.060,0.307
21.6,-0.001,-0.010,0.003,-0.016,-0.031,0.013,-0.143,-0.061,0.308
21.6,-0.001,0.029,0.003,-0.016,-0.031,0.013,-0.144,-0.062,0.308
21.6,0.009,0.010,-0.007,-0.016,-0.031,0.013,-0.144,-0.063,0.308
21.7,-0.001,0.010,0.002,-0.016,-0.031,0.013,-0.144,-0.063,0.309
21.7,0.009,0.020,0.002,-0.016,-0.030,0.012,-0.145,-0.064,0.309
21.7,-0.011,0.020,-0.007,-0.016,-0.030,0.012,-0.145,-0.065,0.309
21.7,0.016,0.010,0.002,-0.016,-0.029,0.012,-0.146,-0.066,0.310
21.7,-0.003,0.020,0.002,-0.016,-0.029,0.012,-0.146,-0.066,0.310
21.8,-0.003,0.000,0.002,-0.016,-0.029,0.012,-0.147,-0.068,0.310
21.8,0.015,0.010,0.002,-0.016,-0.028,0.012,-0.147,-0.068,0.311
21.8,0.005,0.029,0.002,-0.016,-0.028,0.012,-0.147,-0.069,0.311
21.8,-0.013,0.020,-0.007,-0.016,-0.028,0.012,-0.148,-0.069,0.311
21.8,0.006,0.029,0.002,-0.016,-0.027,0.012,-0.148,-0.070,0.312
21.9,-0.004,0.000,0.002,-0.016,-0.027,0.012,-0.149,-0.071,0.312
21.9,0.014,0.020,0.002,-0.016,-0.027,0.012,-0.149,-0.071,0.312
21.9,0.004,0.010,0.002,-0.016,-0.026,0.012,-0.149,-0.072,0.313
21.9,0.004,0.000,0.002,-0.015,-0.026,0.012,-0.150,-0.073,0.313
21.9,-0.014,-0.020,0.002,-0.015,-0.026,0.012,-0.150,-0.073,0.313
22.0,-0.004,0.020,0.002,-0.015,-0.025,0.012,-0.150,-0.074,0.313
22.0,-0.004,-0.020,0.002,-0.015,-0.025,0.012,-0.151,-0.075,0.314
22.0,-0.003,0.020,0.002,-0.015,-0.025,0.012,-0.151,-0.076,0.314
22.0,-0.013,-0.010,-0.008,-0.015,-0.025,0.012,-0.152,-0.076,0.314
22.0,-0.012,-0.029,0.002,-0.016,-0.025,0.012,-0.152,-0.076,0.315
22.1,0.007,0.020,0.002,-0.016,-0.025,0.012,-0.152,-0.077,0.315
22.1,0.008,-0.020,-0.007,-0.016,-0.025,0.012,-0.153,-0.078,0.315
22.1,0.016,0.010,0.002,-0.016,-0.025,0.012,-0.153,-0.078,0.316
22.1,-0.004,0.000,-0.017,-0.016,-0.025,0.012,-0.153,-0.079,0.316
22.1,0.005,0.010,-0.007,-0.016,-0.025,0.012,-0.154,-0.080,0.316
22.2,0.004,-0.020,-0.007,-0.016,-0.025,0.012,-0.154,-0.080,0.317
22.2,-0.015,0.020,0.003,-0.016,-0.025,0.012,-0.155,-0.081,0.317
22.2,0.004,-0.020,0.003,-0.015,-0.025,0.012,-0.155,-0.081,0.317
22.2,0.004,0.010,0.002,-0.015,-0.025,0.012,-0.156,-0.082,0.317
22.2,0.013,-0.010,0.002,-0.015,-0.025,0.012,-0.156,-0.083,0.318
22.3,0.003,-0.010,0.002,-0.015,-0.025,0.012,-0.156,-0.083,0.318
22.3,-0.016,0.000,0.002,-0.015,-0.025,0.012,-0.157,-0.084,0.318
22.3,0.002,-0.010,0.002,-0.015,-0.025,0.012,-0.157,-0.085,0.319
22.3,-0.016,0.000,0.002,-0.015,-0.025,0.012,-0.158,-0.085,0.319
22.3,-0.006,-0.020,0.002,-0.015,-0.025,0.012,-0.158,-0.086,0.319
22.4,-0.014,0.020,0.002,-0.015,-0.025,0.012,-0.158,-0.086,0.319
22.4,0.014,-0.020,0.002,-0.015,-0.025,0.012,-0.159,-0.087,0.320
22.4,0.004,-0.010,-0.008,-0.015,-0.026,0.012,-0.159,-0.088,0.320
22.4,0.003,-0.020,0.001,-0.015,-0.026,0.012,-0.159,-0.088,0.320
22.4,-0.006,0.010,0.001,-0.015,-0.026,0.012,-0.160,-0.089,0.321
22.5,-0.006,-0.020,-0.008,-0.016,-0.026,0.012,-0.160,-0.090,0.321
22.5,-0.005,0.010,0.001,-0.016,-0.026,0.012,-0.161,-0.090,0.321
22.5,0.004,-0.029,0.001,-0.016,-0.026,0.012,-0.161,-0.091,0.322
22.5,-0.014,-0.020,0.001,-0.016,-0.027,0.012,-0.161,-0.092,0.322
22.5,-0.004,-0.020,-0.008,-0.016,-0.027,0.012,-0.162,-0.093,0.322
22.6,0.016,-0.010,-0.008,-0.016,-0.027,0.012,-0.162,-0.093,0.322
22.6,0.006,0.010,0.002,-0.016,-0.027,0.012,-0.162,-0.094,0.323
22.6,-0.013,-0.010,0.002,-0.016,-0.028,0.012,-0.163,-0.095,0.323
22.6,-0.003,-0.029,-0.008,-0.016,-0.028,0.012,-0.163,-0.095,0.323
22.6,0.006,-0.020,0.001,-0.016,-0.028,0.012,-0.164,-0.096,0.324
22.7,0.006,0.010,0.001,-0.016,-0.028,0.012,-0.164,-0.096,0.324
22.7,0.005,-0.010,-0.008,-0.016,-0.029,0.012,-0.165,-0.098,0.324
22.7,-0.004,0.010,-0.017,-0.016,-0.029,0.012,-0.165,-0.098,0.325
22.7,-0.014,0.000,0.003,-0.016,-0.029,0.012,-0.165,-0.099,0.325
22.7,0.005,0.029,0.003,-0.016,-0.029,0.011,-0.166,-0.099,0.325
22.8,0.013,-0.010,-0.006,-0.016,-0.029,0.011,-0.166,-0.101,0.326
22.8,0.004,0.010,0.003,-0.016,-0.029,0.011,-0.167,-0.101,0.326
22.8,-0.014,0.020,0.003,-0.016,-0.029,0.011,-0.167,-0.102,0.326
22.8,-0.004,0.029,-0.006,-0.016,-0.029,0.011,-0.168,-0.103,0.326
22.8,0.005,0.000,0.003,-0.016,-0.029,0.011,-0.168,-0.103,0.327
22.9,0.014,0.039,-0.006,-0.016,-0.029,0.011,-0.168,-0.104,0.327
22.9,-0.006,0.020,0.004,-0.016,-0.029,0.011,-0.168,-0.105,0.327
22.9,-0.006,0.010,-0.006,-0.016,-0.029,0.011,-0.169,-0.106,0.328
22.9,-0.005,0.020,0.003,-0.016,-0.028,0.011,-0.169,-0.106,0.328
22.9,-0.015,0.010,0.003,-0.016,-0.028,0.011,-0.170,-0.107,0.328
23.0,-0.006,0.020,-0.006,-0.016,-0.028,0.011,-0.170,-0.108,0.328
23.0,-0.005,0.020,-0.005,-0.016,-0.028,0.011,-0.171,-0.109,0.329
23.0,0.014,0.020,0.004,-0.016,-0.027,0.011,-0.171,-0.109,0.329
23.0,-0.005,0.020,-0.014,-0.016,-0.027,0.011,-0.171,-0.110,0.329
23.0,0.004,0.029,0.005,-0.016,-0.027,0.011,-0.172,-0.111,0.330
23.1,0.004,0.000,0.005,-0.016,-0.026,0.011,-0.172,-0.111,0.330
23.1,0.004,0.020,-0.004,-0.016,-0.026,0.011,-0.173,-0.112,0.330
23.1,0.004,0.020,0.006,-0.016,-0.026,0.011,-0.173,-0.112,0.330
23.1,0.004,0.029,0.005,-0.016,-0.025,0.011,-0.174,-0.113,0.331
23.1,-0.005,0.000,-0.004,-0.016,-0.025,0.011,-0.174,-0.114,0.331
23.2,0.004,0.010,0.005,-0.016,-0.025,0.011,-0.174,-0.114,0.331
23.2,0.023,0.000,0.006,-0.016,-0.024,0.011,-0.175,-0.115,0.331
23.2,-0.005,0.020,0.005,-0.016,-0.024,0.011,-0.175,-0.116,0.332
23.2,-0.015,0.020,-0.014,-0.016,-0.024,0.011,-0.175,-0.116,0.332
23.2,0.022,0.010,0.005,-0.015,-0.023,0.011,-0.176,-0.117,0.332
23.3,-0.007,0.020,0.004,-0.015,-0.023,0.011,-0.176,-0.118,0.333
23.3,0.003,0.000,0.004,-0.015,-0.022,0.011,-0.177,-0.118,0.333
23.3,0.003,0.029,0.004,-0.015,-0.022,0.011,-0.177,-0.119,0.333
23.3,0.003,0.000,0.004,-0.015,-0.022,0.011,-0.177,-0.119,0.333
23.3,0.002,0.000,0.004,-0.015,-0.022,0.011,-0.178,-0.119,0.333
23.4,-0.007,-0.010,-0.005,-0.015,-0.021,0.011,-0.178,-0.120,0.334
23.4,0.013,0.029,0.004,-0.015,-0.021,0.011,-0.178,-0.121,0.334
23.4,0.003,0.000,0.004,-0.015,-0.021,0.011,-0.179,-0.121,0.334
23.4,-0.006,0.000,-0.014,-0.015,-0.020,0.011,-0.179,-0.122,0.335
23.4,0.003,-0.010,0.005,-0.015,-0.020,0.011,-0.180,-0.122,0.335
23.5,-0.006,0.029,0.005,-0.015,-0.020,0.011,-0.180,-0.123,0.335
23.5,0.004,-0.010,0.005,-0.015,-0.020,0.011,-0.180,-0.123,0.335
23.5,0.013,0.010,-0.004,-0.015,-0.019,0.011,-0.181,-0.124,0.336
23.5,-0.006,0.020,0.005,-0.015,-0.019,0.011,-0.181,-0.124,0.336
23.5,0.003,0.000,0.005,-0.015,-0.019,0.011,-0.182,-0.125,0.336
23.6,-0.006,0.020,0.004,-0.015,-0.019,0.012,-0.182,-0.125,0.337
23.6,0.004,0.029,0.014,-0.015,-0.018,0.012,-0.182,-0.125,0.337
23.6,0.013,0.010,0.004,-0.015,-0.018,0.012,-0.182,-0.126,0.337
23.6,-0.007,0.029,-0.006,-0.015,-0.018,0.012,-0.183,-0.126,0.337
23.6,0.012,0.000,0.004,-0.015,-0.017,0.012,-0.183,-0.127,0.338
23.7,0.002,0.010,0.003,-0.015,-0.017,0.012,-0.184,-0.127,0.338
23.7,0.002,0.000,0.003,-0.015,-0.017,0.012,-0.184,-0.128,0.338
23.7,0.002,0.020,0.003,-0.015,-0.017,0.012,-0.184,-0.128,0.338
23.7,-0.008,0.000,0.003,-0.015,-0.017,0.012,-0.185,-0.128,0.339
23.7,-0.007,0.010,0.003,-0.015,-0.016,0.012,-0.185,-0.129,0.339
23.8,0.012,0.020,0.012,-0.015,-0.016,0.012,-0.185,-0.129,0.339
23.8,0.002,-0.010,0.002,-0.015,-0.016,0.012,-0.186,-0.129,0.340
23.8,-0.016,0.020,0.002,-0.015,-0.016,0.012,-0.186,-0.130,0.340
23.8,0.003,0.010,0.010,-0.015,-0.015,0.012,-0.187,-0.130,0.340
23.8,-0.016,0.020,0.000,-0.015,-0.015,0.013,-0.187,-0.131,0.341
23.9,0.003,0.010,0.000,-0.015,-0.015,0.013,-0.187,-0.131,0.341
23.9,0.003,0.020,0.010,-0.015,-0.014,0.013,-0.187,-0.131,0.341
23.9,-0.005,0.010,0.000,-0.015,-0.014,0.013,-0.188,-0.132,0.342
23.9,-0.005,0.020,0.000,-0.015,-0.014,0.013,-0.188,-0.132,0.342
23.9,-0.005,0.010,0.000,-0.015,-0.013,0.013,-0.189,-0.132,0.342
24.0,-0.005,0.039,0.000,-0.015,-0.013,0.013,-0.189,-0.133,0.342
24.0,0.005,0.020,0.000,-0.015,-0.013,0.013,-0.190,-0.133,0.343
24.0,-0.015,0.020,0.000,-0.015,-0.012,0.013,-0.190,-0.133,0.343
24.0,0.013,0.020,0.000,-0.015,-0.012,0.013,-0.190,-0.134,0.344
24.0,0.003,0.000,0.000,-0.015,-0.012,0.013,-0.190,-0.134,0.344
24.1,0.024,0.020,0.000,-0.015,-0.011,0.014,-0.191,-0.134,0.344
24.1,-0.005,0.010,0.000,-0.015,-0.011,0.014,-0.191,-0.135,0.345
24.1,-0.015,0.020,0.000,-0.015,-0.010,0.014,-0.192,-0.135,0.345
24.1,-0.005,0.020,0.000,-0.015,-0.010,0.014,-0.192,-0.135,0.345
24.1,-0.004,0.020,0.000,-0.015,-0.009,0.014,-0.193,-0.135,0.346
24.2,0.025,0.010,0.000,-0.015,-0.009,0.014,-0.193,-0.136,0.346
24.2,0.015,0.020,0.000,-0.015,-0.008,0.014,-0.194,-0.136,0.347
24.2,0.004,0.020,0.000,-0.015,-0.008,0.014,-0.194,-0.136,0.347
24.2,-0.005,0.020,0.000,-0.015,-0.008,0.014,-0.194,-0.136,0.347
24.2,0.013,0.039,0.000,-0.015,-0.007,0.014,-0.194,-0.136,0.347
24.3,-0.006,-0.010,0.000,-0.015,-0.007,0.014,-0.195,-0.137,0.348
24.3,-0.016,0.000,0.010,-0.015,-0.006,0.014,-0.195,-0.137,0.348
24.3,0.003,0.010,0.000,-0.015,-0.006,0.014,-0.196,-0.137,0.348
24.3,0.003,0.000,0.000,-0.015,-0.006,0.014,-0.196,-0.137,0.349
24.3,0.003,-0.010,0.000,-0.015,-0.006,0.014,-0.196,-0.137,0.349
24.4,0.003,0.000,0.000,-0.015,-0.005,0.014,-0.197,-0.137,0.350
24.4,-0.007,0.010,0.000,-0.015,-0.005,0.014,-0.197,-0.137,0.350
24.4,0.003,0.000,0.000,-0.015,-0.005,0.014,-0.197,-0.138,0.350
24.4,0.003,-0.010,0.010,-0.015,-0.005,0.014,-0.198,-0.138,0.350
24.4,-0.006,0.020,0.000,-0.015,-0.004,0.014,-0.198,-0.138,0.351
24.5,0.003,0.020,0.000,-0.015,-0.004,0.014,-0.199,-0.138,0.351
24.5,0.013,-0.010,0.010,-0.015,-0.004,0.014,-0.199,-0.138,0.352
24.5,0.012,0.010,0.000,-0.015,-0.004,0.014,-0.199,-0.138,0.352
24.5,-0.016,0.020,0.000,-0.015,-0.004,0.014,-0.200,-0.138,0.352
24.5,-0.006,-0.010,0.000,-0.015,-0.003,0.014,-0.200,-0.138,0.353
24.6,-0.006,0.000,0.000,-0.015,-0.003,0.014,-0.200,-0.138,0.353
24.6,-0.006,0.000,0.000,-0.015,-0.003,0.014,-0.201,-0.138,0.353
24.6,-0.006,0.010,0.000,-0.015,-0.003,0.014,-0.201,-0.139,0.354
24.6,0.012,0.010,0.000,-0.015,-0.003,0.015,-0.202,-0.139,0.354
24.6,-0.007,0.000,0.000,-0.015,-0.003,0.015,-0.202,-0.139,0.354
24.7,-0.007,0.010,0.000,-0.015,-0.003,0.015,-0.202,-0.139,0.355
24.7,-0.015,0.010,0.000,-0.015,-0.003,0.015,-0.203,-0.139,0.355
24.7,0.014,0.000,0.000,-0.015,-0.003,0.015,-0.203,-0.139,0.356
24.7,-0.006,0.020,0.000,-0.015,-0.002,0.015,-0.204,-0.139,0.356
24.7,0.003,0.000,0.000,-0.015,-0.002,0.015,-0.204,-0.139,0.357
24.8,0.013,-0.010,0.000,-0.015,-0.002,0.015,-0.204,-0.139,0.357
24.8,-0.018,0.010,0.000,-0.015,-0.002,0.015,-0.205,-0.139,0.357
24.8,-0.016,0.020,0.000,-0.015,-0.002,0.015,-0.205,-0.139,0.358
24.8,-0.015,0.000,0.000,-0.015,-0.001,0.015,-0.206,-0.139,0.358
24.8,-0.005,0.010,0.000,-0.015,-0.001,0.015,-0.206,-0.139,0.359
24.9,0.013,0.000,0.000,-0.015,-0.001,0.015,-0.206,-0.139,0.359
24.9,0.021,0.020,0.000,-0.015,-0.001,0.015,-0.207,-0.139,0.359
24.9,0.011,0.000,0.000,-0.015,-0.001,0.015,-0.207,-0.139,0.360
24.9,0.002,0.000,0.000,-0.015,-0.000,0.015,-0.208,-0.139,0.360
24.9,0.002,0.010,0.000,-0.015,-0.000,0.015,-0.208,-0.139,0.361
25.0,0.011,0.010,0.000,-0.015,-0.000,0.015,-0.209,-0.139,0.361
25.0,0.011,-0.010,0.000,-0.015,0.000,0.015,-0.209,-0.139,0.362
25.0,-0.017,0.010,0.000,-0.015,0.000,0.015,-0.209,-0.139,0.362
25.0,-0.006,0.010,0.000,-0.014,0.001,0.015,-0.210,-0.139,0.362
25.0,-0.006,0.010,0.000,-0.014,0.001,0.015,-0.210,-0.139,0.363
25.1,0.003,0.000,0.000,-0.014,0.001,0.015,-0.211,-0.139,0.363
25.1,-0.015,-0.010,0.000,-0.015,0.001,0.015,-0.211,-0.139,0.364
25.1,0.013,0.000,0.000,-0.015,0.001,0.015,-0.211,-0.139,0.364
25.1,0.003,-0.029,-0.010,-0.015,0.001,0.015,-0.212,-0.139,0.364
25.1,0.003,0.010,0.000,-0.014,0.001,0.015,-0.212,-0.139,0.365
25.2,0.012,-0.020,-0.009,-0.014,0.001,0.015,-0.213,-0.139,0.365
25.2,0.002,0.020,0.001,-0.014,0.001,0.015,-0.213,-0.139,0.366
25.2,-0.019,-0.020,-0.009,-0.014,0.001,0.015,-0.213,-0.139,0.366
25.2,-0.008,0.000,0.001,-0.014,0.001,0.014,-0.214,-0.139,0.366
25.2,0.002,-0.020,0.001,-0.014,0.001,0.014,-0.214,-0.139,0.367
25.3,-0.007,0.000,0.001,-0.014,0.001,0.014,-0.214,-0.139,0.367
25.3,-0.007,-0.029,0.000,-0.014,0.001,0.014,-0.215,-0.139,0.368
25.3,-0.017,0.000,0.000,-0.014,0.001,0.014,-0.215,-0.139,0.368
25.3,0.012,-0.020,0.000,-0.014,0.001,0.014,-0.215,-0.139,0.368
25.3,0.012,-0.010,0.000,-0.014,0.001,0.014,-0.216,-0.139,0.368
25.4,0.012,-0.020,-0.008,-0.014,0.000,0.014,-0.216,-0.139,0.369
25.4,0.010,0.010,0.002,-0.014,0.000,0.014,-0.217,-0.139,0.369
25.4,0.019,-0.020,0.002,-0.014,-0.000,0.014,-0.217,-0.139,0.370
25.4,0.009,-0.010,0.002,-0.014,-0.000,0.014,-0.217,-0.139,0.370
25.4,-0.001,-0.010,0.002,-0.014,-0.001,0.014,-0.218,-0.139,0.370
25.5,-0.019,-0.010,0.002,-0.014,-0.001,0.014,-0.218,-0.139,0.371
25.5,-0.009,-0.020,0.002,-0.014,-0.001,0.014,-0.219,-0.139,0.371
25.5,0.001,-0.010,0.001,-0.014,-0.001,0.014,-0.219,-0.139,0.372
25.5,0.001,-0.010,-0.017,-0.014,-0.001,0.014,-0.219,-0.139,0.372
25.5,0.001,0.020,0.003,-0.014,-0.002,0.014,-0.220,-0.139,0.372
25.6,0.009,-0.010,-0.006,-0.014,-0.002,0.014,-0.220,-0.139,0.373
25.6,-0.009,-0.010,0.003,-0.014,-0.002,0.014,-0.221,-0.139,0.373
25.6,0.001,-0.020,0.003,-0.014,-0.002,0.014,-0.221,-0.139,0.374
25.6,-0.008,-0.029,0.003,-0.014,-0.002,0.014,-0.221,-0.139,0.374
25.6,-0.008,-0.010,0.003,-0.014,-0.002,0.014,-0.221,-0.139,0.374
25.7,0.011,0.000,-0.007,-0.014,-0.003,0.014,-0.222,-0.139,0.375
25.7,0.001,-0.010,-0.015,-0.014,-0.003,0.014,-0.222,-0.140,0.375
25.7,0.001,-0.020,0.004,-0.014,-0.003,0.014,-0.223,-0.140,0.375
25.7,0.003,-0.020,0.004,-0.014,-0.004,0.014,-0.223,-0.140,0.376
25.7,-0.006,-0.020,-0.005,-0.014,-0.004,0.014,-0.223,-0.140,0.376
25.8,-0.006,-0.010,-0.005,-0.014,-0.004,0.014,-0.224,-0.140,0.376
25.8,0.021,-0.020,0.004,-0.014,-0.004,0.013,-0.224,-0.140,0.377
25.8,-0.008,-0.010,0.003,-0.014,-0.005,0.013,-0.225,-0.140,0.377
25.8,0.012,0.000,0.003,-0.014,-0.005,0.013,-0.225,-0.140,0.377
25.8,0.011,-0.010,0.003,-0.014,-0.005,0.013,-0.225,-0.140,0.378
25.9,0.019,-0.029,-0.006,-0.014,-0.005,0.013,-0.226,-0.141,0.378
25.9,-0.020,0.010,-0.006,-0.014,-0.006,0.013,-0.226,-0.141,0.378
25.9,-0.001,-0.010,0.003,-0.014,-0.006,0.013,-0.226,-0.141,0.379
25.9,-0.001,-0.020,0.003,-0.014,-0.006,0.013,-0.227,-0.141,0.379
25.9,-0.009,-0.029,0.004,-0.014,-0.006,0.013,-0.227,-0.141,0.380
26.0,0.001,0.000,0.004,-0.014,-0.007,0.013,-0.227,-0.141,0.380
26.0,-0.009,-0.020,-0.016,-0.014,-0.007,0.013,-0.228,-0.141,0.380
26.0,0.010,-0.010,0.003,-0.015,-0.007,0.013,-0.228,-0.142,0.380
26.0,0.009,-0.029,0.003,-0.014,-0.007,0.013,-0.229,-0.142,0.381
26.0,-0.010,-0.010,-0.007,-0.014,-0.008,0.013,-0.229,-0.142,0.381
26.1,0.008,-0.020,0.003,-0.014,-0.008,0.013,-0.229,-0.142,0.381
26.1,-0.001,0.010,0.002,-0.014,-0.009,0.013,-0.230,-0.142,0.382
26.1,-0.001,0.000,0.002,-0.014,-0.009,0.013,-0.230,-0.143,0.382
26.1,-0.010,-0.029,-0.007,-0.014,-0.009,0.013,-0.230,-0.143,0.382
26.1,-0.000,0.010,0.003,-0.014,-0.009,0.013,-0.231,-0.143,0.383
26.2,-0.001,-0.010,-0.017,-0.014,-0.010,0.013,-0.231,-0.143,0.383
26.2,-0.010,0.000,0.003,-0.014,-0.010,0.013,-0.232,-0.144,0.384
26.2,0.009,-0.020,0.003,-0.014,-0.010,0.013,-0.232,-0.144,0.384
26.2,-0.009,-0.010,0.002,-0.014,-0.010,0.013,-0.232,-0.144,0.384
26.2,0.009,-0.010,0.002,-0.014,-0.011,0.013,-0.233,-0.144,0.385
26.3,-0.000,0.000,0.002,-0.014,-0.011,0.013,-0.233,-0.145,0.385
26.3,0.009,-0.010,0.002,-0.014,-0.011,0.013,-0.233,-0.145,0.385
26.3,-0.010,0.000,0.002,-0.014,-0.011,0.013,-0.234,-0.145,0.386
26.3,-0.000,-0.020,0.002,-0.014,-0.012,0.013,-0.234,-0.146,0.386
26.3,0.009,-0.020,0.002,-0.014,-0.012,0.013,-0.234,-0.146,0.386
26.4,-0.011,0.010,-0.008,-0.014,-0.012,0.013,-0.235,-0.146,0.387
26.4,-0.011,0.010,0.002,-0.015,-0.012,0.013,-0.235,-0.146,0.387
26.4,-0.010,-0.020,0.002,-0.015,-0.012,0.013,-0.236,-0.147,0.387
26.4,0.010,-0.020,0.002,-0.015,-0.013,0.013,-0.236,-0.147,0.388
26.4,0.000,-0.010,0.002,-0.015,-0.013,0.013,-0.236,-0.147,0.388
26.5,0.000,-0.010,-0.007,-0.015,-0.013,0.013,-0.237,-0.148,0.388
26.5,0.010,0.010,0.003,-0.015,-0.013,0.013,-0.237,-0.148,0.389
26.5,0.000,-0.029,-0.006,-0.015,-0.013,0.013,-0.237,-0.148,0.389
26.5,0.009,-0.020,0.003,-0.015,-0.014,0.013,-0.238,-0.149,0.389
26.5,-0.001,-0.029,0.003,-0.015,-0.014,0.013,-0.238,-0.149,0.390
26.6,-0.010,0.000,0.003,-0.015,-0.014,0.013,-0.239,-0.149,0.390
26.6,0.000,-0.010,0.002,-0.015,-0.015,0.013,-0.239,-0.150,0.391
26.6,-0.010,0.000,0.002,-0.015,-0.015,0.014,-0.239,-0.150,0.391
26.6,0.009,-0.020,0.002,-0.015,-0.015,0.014,-0.240,-0.151,0.391
26.6,-0.010,-0.010,-0.007,-0.015,-0.015,0.014,-0.240,-0.151,0.391
26.7,-0.010,0.000,0.002,-0.015,-0.015,0.014,-0.240,-0.151,0.392
26.7,0.000,0.010,-0.007,-0.015,-0.016,0.014,-0.241,-0.152,0.392
26.7,-0.010,-0.020,0.003,-0.015,-0.016,0.014,-0.241,-0.152,0.392
26.7,-0.009,-0.010,0.002,-0.015,-0.016,0.014,-0.242,-0.152,0.393
26.7,0.001,0.000,0.002,-0.015,-0.016,0.014,-0.242,-0.153,0.393
26.8,-0.008,-0.010,0.002,-0.015,-0.017,0.014,-0.242,-0.153,0.393
26.8,0.002,-0.020,-0.007,-0.016,-0.017,0.014,-0.243,-0.154,0.394
26.8,0.002,-0.020,0.003,-0.016,-0.017,0.014,-0.243,-0.154,0.394
26.8,0.001,0.020,0.003,-0.016,-0.017,0.014,-0.243,-0.154,0.394
26.8,-0.008,-0.010,-0.007,-0.016,-0.018,0.014,-0.244,-0.155,0.395
26.9,0.010,-0.020,0.002,-0.016,-0.018,0.014,-0.244,-0.155,0.395
26.9,-0.008,0.000,0.002,-0.016,-0.018,0.014,-0.245,-0.156,0.395
26.9,0.011,-0.010,0.002,-0.016,-0.018,0.014,-0.245,-0.156,0.396
26.9,0.001,0.010,0.002,-0.016,-0.018,0.014,-0.245,-0.157,0.396
26.9,-0.009,-0.020,0.002,-0.016,-0.019,0.014,-0.246,-0.157,0.396
27.0,-0.009,-0.010,0.002,-0.016,-0.019,0.014,-0.246,-0.158,0.397
27.0,-0.008,-0.020,-0.007,-0.016,-0.019,0.014,-0.247,-0.158,0.397
27.0,0.012,0.020,0.002,-0.016,-0.019,0.014,-0.247,-0.158,0.397
27.0,-0.009,-0.010,-0.007,-0.016,-0.019,0.014,-0.247,-0.159,0.398
27.0,-0.008,-0.010,0.002,-0.016,-0.020,0.014,-0.248,-0.160,0.398
27.1,0.011,-0.010,0.002,-0.016,-0.020,0.014,-0.248,-0.160,0.398
27.1,0.001,0.000,0.002,-0.016,-0.020,0.014,-0.248,-0.160,0.399
27.1,0.001,-0.039,0.002,-0.016,-0.020,0.014,-0.249,-0.161,0.399
27.1,-0.008,0.000,0.002,-0.016,-0.020,0.014,-0.249,-0.162,0.400
27.1,0.001,0.000,0.002,-0.016,-0.020,0.014,-0.250,-0.162,0.400
27.2,-0.017,0.020,0.002,-0.016,-0.021,0.014,-0.250,-0.163,0.400
27.2,-0.007,-0.020,0.002,-0.016,-0.021,0.014,-0.251,-0.163,0.401
27.2,0.012,-0.010,0.001,-0.016,-0.021,0.014,-0.251,-0.164,0.401
27.2,-0.008,0.000,0.001,-0.016,-0.021,0.014,-0.251,-0.164,0.401
27.2,0.002,0.000,0.001,-0.016,-0.021,0.014,-0.252,-0.165,0.402
27.3,0.001,-0.020,-0.008,-0.016,-0.022,0.014,-0.252,-0.165,0.402
27.3,0.001,-0.010,0.002,-0.016,-0.022,0.014,-0.253,-0.166,0.402
27.3,0.001,-0.010,0.002,-0.016,-0.022,0.014,-0.253,-0.166,0.403
27.3,0.010,-0.029,-0.007,-0.016,-0.022,0.014,-0.254,-0.167,0.403
27.3,0.000,0.020,0.002,-0.016,-0.022,0.014,-0.254,-0.168,0.403
27.4,-0.009,-0.010,0.002,-0.016,-0.023,0.014,-0.254,-0.168,0.404
27.4,-0.009,-0.020,0.002,-0.016,-0.023,0.014,-0.255,-0.169,0.404
27.4,-0.009,0.000,0.002,-0.016,-0.023,0.014,-0.255,-0.169,0.405
27.4,0.010,0.020,0.002,-0.016,-0.023,0.014,-0.255,-0.170,0.405
27.4,-0.019,0.010,0.002,-0.016,-0.023,0.014,-0.256,-0.170,0.405
27.5,0.000,0.010,0.002,-0.016,-0.023,0.014,-0.256,-0.171,0.405
27.5,-0.010,0.029,0.002,-0.016,-0.023,0.014,-0.256,-0.171,0.406
27.5,0.009,0.000,0.002,-0.016,-0.023,0.014,-0.257,-0.172,0.406
27.5,-0.009,0.020,0.001,-0.016,-0.023,0.014,-0.257,-0.173,0.407
27.5,0.000,0.000,0.001,-0.016,-0.023,0.014,-0.258,-0.173,0.407
27.6,-0.009,0.020,0.001,-0.016,-0.023,0.014,-0.258,-0.174,0.407
27.6,0.021,0.049,0.001,-0.016,-0.023,0.014,-0.258,-0.174,0.407
27.6,0.001,-0.010,0.001,-0.016,-0.022,0.014,-0.259,-0.175,0.408
27.6,0.001,0.039,0.010,-0.016,-0.022,0.014,-0.259,-0.175,0.408
27.6,0.001,0.000,0.000,-0.016,-0.022,0.014,-0.260,-0.176,0.408
27.7,0.001,0.039,0.000,-0.016,-0.022,0.014,-0.260,-0.176,0.409
27.7,-0.009,0.010,0.000,-0.016,-0.021,0.014,-0.260,-0.177,0.409
27.7,-0.019,0.039,0.000,-0.017,-0.021,0.014,-0.261,-0.178,0.410
27.7,0.001,0.010,0.018,-0.017,-0.020,0.014,-0.261,-0.178,0.410
27.7,0.001,0.020,-0.001,-0.017,-0.020,0.014,-0.262,-0.178,0.410
27.8,0.001,0.010,0.008,-0.017,-0.020,0.014,-0.262,-0.179,0.411
27.8,0.009,0.010,-0.001,-0.017,-0.019,0.014,-0.263,-0.180,0.411
27.8,-0.010,0.000,-0.001,-0.017,-0.019,0.014,-0.263,-0.180,0.411
27.8,-0.000,0.039,-0.001,-0.017,-0.019,0.015,-0.263,-0.180,0.412
27.8,-0.018,0.010,-0.001,-0.017,-0.018,0.015,-0.264,-0.181,0.412
27.9,0.011,0.000,0.009,-0.017,-0.018,0.015,-0.264,-0.181,0.412
27.9,0.001,0.020,-0.001,-0.017,-0.018,0.015,-0.265,-0.182,0.413
27.9,-0.008,0.000,-0.001,-0.017,-0.017,0.015,-0.265,-0.182,0.413
27.9,0.001,0.020,-0.001,-0.017,-0.017,0.015,-0.266,-0.183,0.414
27.9,-0.008,-0.010,-0.001,-0.017,-0.016,0.015,-0.266,-0.183,0.414
28.0,-0.008,0.029,0.009,-0.017,-0.016,0.015,-0.266,-0.183,0.414
28.0,0.011,0.010,-0.001,-0.017,-0.016,0.015,-0.267,-0.184,0.415
28.0,0.001,0.010,-0.001,-0.017,-0.015,0.015,-0.267,-0.184,0.415
28.0,0.011,0.000,-0.001,-0.017,-0.015,0.015,-0.268,-0.185,0.415
28.0,0.001,0.020,-0.001,-0.017,-0.015,0.015,-0.268,-0.185,0.416
28.1,0.001,0.010,-0.000,-0.017,-0.014,0.015,-0.269,-0.186,0.416
28.1,-0.019,0.010,-0.000,-0.017,-0.014,0.015,-0.269,-0.186,0.417
28.1,0.010,0.029,-0.000,-0.017,-0.014,0.015,-0.269,-0.186,0.417
28.1,-0.000,0.020,-0.000,-0.017,-0.013,0.015,-0.270,-0.187,0.418
28.1,-0.000,0.000,-0.000,-0.017,-0.013,0.015,-0.271,-0.187,0.418
28.2,-0.000,0.000,-0.000,-0.017,-0.013,0.015,-0.271,-0.187,0.418
28.2,-0.010,0.010,-0.000,-0.017,-0.013,0.015,-0.271,-0.187,0.418
28.2,-0.000,0.000,-0.000,-0.017,-0.012,0.015,-0.272,-0.188,0.419
28.2,-0.018,-0.010,-0.000,-0.017,-0.012,0.015,-0.272,-0.188,0.419
28.2,-0.008,-0.010,-0.000,-0.017,-0.012,0.015,-0.273,-0.188,0.420
28.3,-0.007,0.010,-0.000,-0.017,-0.012,0.015,-0.273,-0.189,0.420
28.3,-0.016,0.010,-0.000,-0.018,-0.012,0.015,-0.274,-0.189,0.421
28.3,0.004,0.000,-0.000,-0.018,-0.012,0.015,-0.274,-0.189,0.421
28.3,-0.005,0.000,-0.000,-0.018,-0.012,0.015,-0.274,-0.190,0.421
28.3,0.004,0.000,-0.000,-0.018,-0.012,0.015,-0.275,-0.190,0.422
28.4,-0.006,-0.010,-0.000,-0.018,-0.012,0.015,-0.275,-0.190,0.422
28.4,0.003,-0.029,-0.000,-0.018,-0.012,0.015,-0.276,-0.191,0.423
28.4,-0.006,-0.010,-0.000,-0.018,-0.012,0.015,-0.277,-0.191,0.423
28.4,0.003,0.010,-0.000,-0.018,-0.012,0.015,-0.277,-0.191,0.423
28.4,-0.016,0.010,-0.000,-0.018,-0.012,0.015,-0.278,-0.192,0.424
28.5,-0.006,0.000,-0.000,-0.018,-0.012,0.015,-0.278,-0.192,0.424
28.5,0.004,-0.020,-0.000,-0.019,-0.012,0.015,-0.278,-0.192,0.424
28.5,0.003,0.010,-0.000,-0.019,-0.012,0.015,-0.279,-0.192,0.425
28.5,-0.006,-0.010,-0.000,-0.019,-0.012,0.015,-0.279,-0.193,0.425
28.5,0.004,0.010,-0.000,-0.019,-0.012,0.015,-0.280,-0.193,0.426
28.6,0.003,-0.010,-0.000,-0.019,-0.012,0.015,-0.280,-0.193,0.426
28.6,-0.006,0.010,-0.000,-0.019,-0.012,0.015,-0.281,-0.194,0.426
28.6,0.004,-0.010,-0.000,-0.019,-0.012,0.015,-0.281,-0.194,0.427
28.6,-0.005,0.000,-0.000,-0.018,-0.012,0.015,-0.282,-0.194,0.427
28.6,-0.005,0.000,-0.000,-0.019,-0.012,0.015,-0.282,-0.195,0.427
28.7,0.004,0.000,-0.000,-0.019,-0.013,0.015,-0.283,-0.195,0.428
28.7,0.004,-0.010,0.000,-0.018,-0.013,0.015,-0.283,-0.195,0.428
28.7,0.014,0.000,0.000,-0.018,-0.013,0.015,-0.284,-0.196,0.429
28.7,0.003,0.000,0.000,-0.018,-0.013,0.015,-0.284,-0.196,0.429
28.7,0.012,0.000,0.000,-0.018,-0.013,0.015,-0.285,-0.196,0.429
28.8,0.002,-0.010,0.000,-0.018,-0.013,0.015,-0.285,-0.197,0.430
28.8,0.002,-0.010,0.000,-0.018,-0.013,0.015,-0.285,-0.197,0.430
28.8,0.002,-0.010,0.000,-0.018,-0.013,0.015,-0.286,-0.197,0.431
28.8,-0.008,-0.010,0.000,-0.018,-0.014,0.015,-0.286,-0.198,0.431
28.8,0.002,0.010,0.009,-0.018,-0.014,0.015,-0.287,-0.198,0.431
28.9,-0.008,-0.020,-0.001,-0.018,-0.014,0.015,-0.287,-0.198,0.432
28.9,0.012,0.000,-0.001,-0.018,-0.014,0.015,-0.288,-0.199,0.432
28.9,-0.007,-0.020,-0.001,-0.018,-0.014,0.015,-0.288,-0.199,0.432
28.9,-0.007,0.000,-0.001,-0.018,-0.014,0.015,-0.289,-0.199,0.433
28.9,0.021,-0.020,-0.010,-0.018,-0.014,0.015,-0.289,-0.200,0.433
29.0,-0.017,0.010,0.000,-0.018,-0.015,0.015,-0.290,-0.200,0.434
29.0,0.022,0.000,0.000,-0.018,-0.015,0.015,-0.290,-0.201,0.434
29.0,-0.006,0.020,0.000,-0.018,-0.015,0.015,-0.290,-0.201,0.434
29.0,-0.006,0.010,0.000,-0.018,-0.015,0.015,-0.291,-0.201,0.434
29.0,0.002,0.029,0.000,-0.018,-0.015,0.015,-0.291,-0.202,0.435
29.1,0.002,0.020,0.000,-0.018,-0.015,0.015,-0.292,-0.202,0.435
29.1,0.012,0.000,-0.010,-0.018,-0.015,0.015,-0.292,-0.202,0.436
29.1,-0.008,0.010,-0.010,-0.018,-0.015,0.015,-0.293,-0.203,0.436
29.1,0.011,0.010,0.000,-0.017,-0.015,0.015,-0.293,-0.203,0.437
29.1,0.001,0.020,-0.010,-0.017,-0.014,0.015,-0.294,-0.204,0.437
29.2,-0.009,0.020,0.000,-0.017,-0.014,0.015,-0.294,-0.204,0.437
29.2,-0.017,0.000,-0.009,-0.017,-0.014,0.015,-0.295,-0.204,0.438
29.2,-0.017,0.020,-0.019,-0.017,-0.014,0.014,-0.295,-0.205,0.438
29.2,0.002,0.029,0.001,-0.017,-0.014,0.014,-0.295,-0.205,0.438
29.2,0.012,-0.010,-0.009,-0.017,-0.013,0.014,-0.296,-0.205,0.439
29.3,0.003,0.010,0.001,-0.017,-0.013,0.014,-0.296,-0.206,0.439
29.3,-0.006,0.000,0.001,-0.018,-0.013,0.014,-0.297,-0.206,0.439
29.3,0.003,0.010,0.001,-0.018,-0.013,0.014,-0.297,-0.206,0.440
29.3,0.003,0.010,0.001,-0.018,-0.013,0.014,-0.297,-0.207,0.440
29.3,-0.006,0.039,0.000,-0.018,-0.012,0.014,-0.298,-0.207,0.441
29.4,0.004,0.010,0.000,-0.018,-0.012,0.014,-0.298,-0.207,0.441
29.4,0.003,0.010,0.000,-0.018,-0.012,0.014,-0.299,-0.207,0.441
29.4,0.012,0.000,0.000,-0.018,-0.011,0.014,-0.300,-0.208,0.442
29.4,-0.017,0.020,0.000,-0.018,-0.011,0.014,-0.300,-0.208,0.442
29.4,-0.007,0.020,0.000,-0.018,-0.011,0.014,-0.300,-0.208,0.442
29.5,0.003,0.010,0.000,-0.018,-0.011,0.014,-0.301,-0.209,0.442
29.5,0.003,0.000,0.000,-0.018,-0.010,0.014,-0.301,-0.209,0.443
29.5,0.002,0.000,0.000,-0.018,-0.010,0.014,-0.302,-0.209,0.443
29.5,-0.017,0.010,0.000,-0.018,-0.010,0.014,-0.302,-0.209,0.444
29.5,0.002,0.000,0.000,-0.018,-0.010,0.014,-0.302,-0.210,0.444
29.6,0.002,0.020,-0.009,-0.018,-0.009,0.014,-0.303,-0.210,0.444
29.6,-0.018,0.000,-0.009,-0.018,-0.009,0.013,-0.303,-0.210,0.445
29.6,-0.007,0.039,0.001,-0.018,-0.009,0.013,-0.304,-0.210,0.445
29.6,-0.006,0.010,0.001,-0.018,-0.008,0.013,-0.304,-0.211,0.445
29.6,-0.006,0.020,0.001,-0.018,-0.008,0.013,-0.305,-0.211,0.446
29.7,0.012,0.000,0.001,-0.018,-0.008,0.013,-0.305,-0.211,0.446
29.7,0.002,0.029,0.001,-0.018,-0.007,0.013,-0.306,-0.211,0.446
29.7,-0.007,0.000,0.001,-0.018,-0.007,0.013,-0.306,-0.211,0.447
29.7,-0.006,0.029,0.001,-0.018,-0.007,0.013,-0.307,-0.212,0.447
29.7,0.003,0.010,0.001,-0.018,-0.006,0.013,-0.307,-0.212,0.447
29.8,-0.006,0.000,0.001,-0.018,-0.006,0.013,-0.307,-0.212,0.448
29.8,0.004,-0.039,0.001,-0.019,-0.006,0.013,-0.308,-0.212,0.448
29.8,-0.006,-0.029,0.001,-0.019,-0.006,0.013,-0.309,-0.212,0.448
29.8,-0.006,-0.010,0.000,-0.019,-0.006,0.013,-0.309,-0.212,0.449
29.8,-0.005,-0.020,0.000,-0.019,-0.006,0.013,-0.310,-0.213,0.449
29.9,-0.005,-0.020,0.000,-0.019,-0.006,0.013,-0.310,-0.213,0.449
29.9,0.004,-0.039,0.000,-0.019,-0.006,0.013,-0.310,-0.213,0.450
29.9,0.004,-0.020,0.000,-0.019,-0.006,0.013,-0.311,-0.213,0.450
29.9,0.014,-0.029,0.000,-0.019,-0.007,0.013,-0.312,-0.213,0.451
29.9,0.003,-0.039,-0.008,-0.019,-0.007,0.013,-0.312,-0.213,0.451
30.0,0.003,-0.029,0.001,-0.019,-0.007,0.013,-0.312,-0.213,0.451
30.0,0.003,-0.010,0.001,-0.019,-0.008,0.013,-0.313,-0.214,0.451
30.0,0.012,-0.029,0.001,-0.019,-0.008,0.013,-0.313,-0.214,0.452
30.0,-0.008,-0.020,0.001,-0.019,-0.009,0.013,-0.314,-0.214,0.452
30.0,-0.007,-0.020,0.001,-0.019,-0.009,0.013,-0.314,-0.214,0.452
30.1,0.002,-0.029,0.001,-0.019,-0.010,0.013,-0.315,-0.215,0.453
30.1,0.012,-0.039,0.001,-0.019,-0.010,0.013,-0.315,-0.215,0.453
30.1,0.002,0.000,0.001,-0.019,-0.010,0.013,-0.316,-0.215,0.453
30.1,0.002,-0.029,0.001,-0.019,-0.011,0.013,-0.316,-0.215,0.454
30.1,-0.007,0.020,0.001,-0.019,-0.012,0.013,-0.317,-0.216,0.454
30.2,0.003,-0.069,0.001,-0.019,-0.012,0.013,-0.317,-0.216,0.455
30.2,-0.017,-0.010,-0.009,-0.019,-0.013,0.013,-0.318,-0.216,0.455
30.2,0.002,-0.010,0.000,-0.019,-0.013,0.013,-0.318,-0.216,0.455
30.2,-0.007,-0.020,0.000,-0.019,-0.014,0.013,-0.319,-0.217,0.456
30.2,0.003,-0.010,0.010,-0.019,-0.014,0.013,-0.319,-0.217,0.456
30.3,-0.006,-0.039,-0.008,-0.019,-0.015,0.013,-0.319,-0.217,0.456
30.3,-0.006,-0.010,0.001,-0.019,-0.015,0.013,-0.320,-0.218,0.456
30.3,0.002,-0.059,0.001,-0.019,-0.016,0.013,-0.321,-0.218,0.457
30.3,-0.016,0.000,0.001,-0.019,-0.016,0.013,-0.321,-0.219,0.457
30.3,0.004,-0.039,0.001,-0.019,-0.017,0.013,-0.321,-0.219,0.457
30.4,-0.006,-0.020,0.001,-0.019,-0.018,0.013,-0.322,-0.220,0.458
30.4,0.003,-0.049,0.001,-0.019,-0.018,0.013,-0.322,-0.220,0.458
30.4,0.003,-0.010,0.001,-0.019,-0.019,0.013,-0.323,-0.220,0.459
30.4,-0.006,-0.039,0.001,-0.019,-0.019,0.013,-0.323,-0.221,0.459
30.4,0.012,-0.010,0.001,-0.019,-0.020,0.013,-0.324,-0.222,0.459
30.5,0.003,-0.039,0.001,-0.019,-0.021,0.013,-0.324,-0.222,0.460
30.5,0.011,-0.049,0.001,-0.019,-0.021,0.013,-0.325,-0.222,0.460
30.5,0.011,-0.020,0.001,-0.019,-0.022,0.014,-0.325,-0.223,0.460
30.5,0.002,-0.020,0.001,-0.019,-0.023,0.014,-0.326,-0.224,0.461
30.5,0.011,-0.010,0.000,-0.019,-0.023,0.014,-0.326,-0.224,0.461
30.6,-0.008,0.000,0.000,-0.019,-0.024,0.014,-0.326,-0.225,0.461
30.6,0.010,0.010,0.000,-0.018,-0.025,0.014,-0.327,-0.226,0.462
30.6,-0.008,0.010,0.000,-0.018,-0.025,0.014,-0.328,-0.226,0.462
30.6,0.001,0.029,0.000,-0.018,-0.025,0.014,-0.328,-0.227,0.462
30.6,0.010,0.000,0.000,-0.018,-0.025,0.014,-0.328,-0.227,0.463
30.7,0.000,0.020,0.000,-0.018,-0.026,0.014,-0.329,-0.228,0.463
30.7,0.020,0.010,0.010,-0.018,-0.026,0.014,-0.329,-0.229,0.463
30.7,-0.018,0.020,0.000,-0.018,-0.026,0.014,-0.330,-0.229,0.464
30.7,-0.007,0.000,0.000,-0.018,-0.025,0.014,-0.331,-0.230,0.464
30.7,-0.007,0.020,0.000,-0.018,-0.025,0.014,-0.331,-0.231,0.465
30.8,-0.006,0.020,0.000,-0.018,-0.025,0.014,-0.331,-0.231,0.465
30.8,0.003,0.000,0.000,-0.018,-0.025,0.014,-0.332,-0.232,0.465
30.8,-0.006,0.000,0.000,-0.018,-0.025,0.014,-0.332,-0.233,0.466
30.8,0.012,0.020,0.000,-0.018,-0.025,0.014,-0.333,-0.233,0.466
30.8,0.002,0.010,0.000,-0.018,-0.025,0.014,-0.333,-0.234,0.466
30.9,0.002,0.029,0.000,-0.018,-0.024,0.014,-0.334,-0.235,0.467
30.9,-0.008,0.029,0.000,-0.018,-0.024,0.014,-0.335,-0.236,0.467
30.9,0.002,0.000,0.000,-0.018,-0.024,0.014,-0.335,-0.236,0.468
30.9,0.012,0.000,0.000,-0.018,-0.024,0.014,-0.335,-0.237,0.468
30.9,-0.017,0.029,0.000,-0.018,-0.023,0.014,-0.336,-0.238,0.468
31.0,-0.006,0.000,0.000,-0.018,-0.023,0.014,-0.336,-0.238,0.469
31.0,-0.006,0.010,0.000,-0.018,-0.023,0.014,-0.337,-0.239,0.469
31.0,0.004,0.020,0.000,-0.018,-0.023,0.014,-0.337,-0.239,0.470
31.0,-0.007,0.000,0.000,-0.018,-0.022,0.014,-0.338,-0.240,0.470
31.0,0.002,0.039,0.000,-0.018,-0.022,0.014,-0.339,-0.241,0.470
31.1,-0.007,0.010,0.000,-0.018,-0.022,0.014,-0.339,-0.241,0.471
31.1,0.001,0.029,0.000,-0.018,-0.021,0.014,-0.340,-0.242,0.471
31.1,-0.008,0.000,0.000,-0.018,-0.021,0.014,-0.340,-0.243,0.471
31.1,0.002,0.020,0.000,-0.018,-0.021,0.014,-0.340,-0.243,0.472
31.1,0.002,0.020,0.000,-0.018,-0.020,0.014,-0.341,-0.243,0.472
31.2,0.002,0.010,0.000,-0.018,-0.020,0.014,-0.342,-0.244,0.473
31.2,0.002,0.020,0.000,-0.018,-0.020,0.014,-0.342,-0.245,0.473
31.2,0.002,0.000,0.000,-0.018,-0.019,0.014,-0.342,-0.245,0.473
31.2,0.002,0.010,0.000,-0.018,-0.019,0.014,-0.343,-0.246,0.474
31.2,0.011,-0.010,0.000,-0.018,-0.019,0.014,-0.343,-0.246,0.474
31.3,-0.008,0.000,-0.020,-0.018,-0.018,0.014,-0.344,-0.247,0.475
31.3,-0.008,0.029,0.000,-0.018,-0.018,0.014,-0.344,-0.247,0.475
31.3,-0.008,0.000,0.000,-0.018,-0.018,0.014,-0.345,-0.248,0.475
31.3,-0.007,-0.020,0.000,-0.018,-0.018,0.014,-0.345,-0.248,0.475
31.3,-0.007,0.020,0.000,-0.018,-0.018,0.014,-0.346,-0.248,0.476
31.4,0.002,-0.010,0.000,-0.018,-0.018,0.014,-0.346,-0.249,0.476
31.4,0.002,0.029,0.000,-0.018,-0.017,0.014,-0.347,-0.249,0.477
31.4,0.002,-0.010,0.000,-0.018,-0.017,0.014,-0.347,-0.250,0.477
31.4,0.002,-0.010,0.000,-0.019,-0.017,0.014,-0.347,-0.250,0.477
31.4,0.002,0.020,0.020,-0.019,-0.017,0.014,-0.348,-0.250,0.477
31.5,0.011,-0.010,0.000,-0.019,-0.017,0.014,-0.348,-0.251,0.478
31.5,0.010,0.020,0.000,-0.019,-0.017,0.014,-0.349,-0.251,0.478
31.5,0.000,-0.010,0.000,-0.018,-0.017,0.014,-0.349,-0.252,0.478
31.5,0.000,0.020,0.009,-0.018,-0.017,0.014,-0.350,-0.252,0.479
31.5,0.010,0.010,-0.001,-0.018,-0.016,0.014,-0.350,-0.252,0.479
31.6,0.001,0.029,-0.001,-0.018,-0.016,0.014,-0.351,-0.253,0.480
31.6,0.019,0.010,-0.001,-0.018,-0.016,0.014,-0.351,-0.253,0.480
31.6,-0.001,0.020,-0.001,-0.018,-0.016,0.014,-0.351,-0.254,0.480
31.6,0.008,0.010,-0.001,-0.018,-0.016,0.014,-0.352,-0.254,0.480
31.6,-0.010,0.000,-0.000,-0.018,-0.015,0.014,-0.353,-0.255,0.481
31.7,-0.010,0.020,-0.000,-0.018,-0.015,0.014,-0.353,-0.255,0.481
31.7,-0.000,0.010,-0.000,-0.018,-0.015,0.014,-0.353,-0.255,0.481
31.7,-0.018,0.020,-0.000,-0.018,-0.015,0.014,-0.354,-0.256,0.482
31.7,0.011,0.000,-0.000,-0.018,-0.015,0.014,-0.354,-0.256,0.482
31.7,0.001,0.000,-0.000,-0.018,-0.014,0.014,-0.355,-0.256,0.483
31.8,0.010,0.000,0.008,-0.018,-0.014,0.014,-0.355,-0.257,0.483
31.8,-0.010,0.010,0.008,-0.018,-0.014,0.014,-0.356,-0.257,0.483
31.8,-0.009,-0.010,-0.001,-0.018,-0.014,0.014,-0.356,-0.258,0.484
31.8,0.001,0.020,0.009,-0.018,-0.014,0.014,-0.357,-0.258,0.484
31.8,0.001,0.000,-0.001,-0.018,-0.014,0.014,-0.357,-0.258,0.485
31.9,0.001,0.010,-0.001,-0.018,-0.014,0.014,-0.358,-0.259,0.485
31.9,0.001,-0.010,-0.001,-0.018,-0.014,0.014,-0.358,-0.259,0.485
31.9,0.001,-0.010,-0.001,-0.018,-0.014,0.014,-0.358,-0.259,0.485
31.9,-0.017,0.000,-0.001,-0.018,-0.013,0.014,-0.359,-0.260,0.486
31.9,0.002,-0.010,0.009,-0.018,-0.013,0.014,-0.359,-0.260,0.486
32.0,0.002,0.029,0.008,-0.018,-0.013,0.014,-0.360,-0.260,0.487
32.0,-0.007,0.020,-0.001,-0.018,-0.013,0.014,-0.361,-0.261,0.487
32.0,0.003,0.000,-0.001,-0.018,-0.013,0.014,-0.361,-0.261,0.487
32.0,0.003,-0.020,-0.001,-0.018,-0.013,0.014,-0.361,-0.261,0.488
32.0,-0.007,0.010,-0.001,-0.018,-0.013,0.014,-0.362,-0.262,0.488
32.1,0.011,-0.010,-0.001,-0.018,-0.013,0.014,-0.362,-0.262,0.488
32.1,-0.007,0.020,-0.001,-0.018,-0.013,0.014,-0.363,-0.262,0.489
32.1,0.002,0.000,0.009,-0.018,-0.013,0.014,-0.363,-0.263,0.489
32.1,-0.007,0.020,-0.001,-0.018,-0.013,0.014,-0.363,-0.263,0.489
32.1,0.003,0.000,-0.001,-0.018,-0.013,0.014,-0.364,-0.263,0.490
32.2,-0.019,0.010,-0.001,-0.018,-0.013,0.014,-0.365,-0.264,0.490
32.2,-0.008,0.039,-0.001,-0.018,-0.013,0.014,-0.365,-0.264,0.491
32.2,0.021,0.000,-0.001,-0.018,-0.012,0.014,-0.365,-0.264,0.491
32.2,-0.007,0.010,-0.001,-0.018,-0.012,0.014,-0.366,-0.265,0.491
32.2,0.011,0.000,-0.001,-0.018,-0.012,0.014,-0.366,-0.265,0.492
32.3,-0.018,0.010,-0.001,-0.018,-0.012,0.014,-0.367,-0.265,0.492
32.3,-0.017,0.000,-0.001,-0.018,-0.012,0.014,-0.367,-0.265,0.492
32.3,-0.015,0.010,-0.000,-0.018,-0.011,0.014,-0.368,-0.266,0.493
32.3,0.004,0.010,-0.000,-0.018,-0.011,0.014,-0.368,-0.266,0.493
32.3,0.004,0.020,-0.000,-0.018,-0.011,0.014,-0.369,-0.266,0.493
32.4,-0.006,0.000,-0.000,-0.018,-0.011,0.014,-0.369,-0.267,0.494
32.4,-0.005,0.020,-0.000,-0.018,-0.011,0.014,-0.370,-0.267,0.494
32.4,-0.005,0.010,-0.009,-0.018,-0.010,0.014,-0.370,-0.267,0.495
32.4,0.015,0.010,0.010,-0.018,-0.010,0.014,-0.370,-0.267,0.495
32.4,-0.004,-0.020,0.000,-0.018,-0.010,0.014,-0.371,-0.268,0.495
32.5,0.005,0.020,0.000,-0.019,-0.010,0.014,-0.372,-0.268,0.496
32.5,0.005,0.010,0.000,-0.019,-0.009,0.014,-0.372,-0.268,0.496
32.5,-0.004,0.000,0.000,-0.019,-0.009,0.014,-0.372,-0.268,0.496
32.5,0.005,-0.010,0.000,-0.019,-0.009,0.014,-0.373,-0.269,0.497
32.5,0.005,0.000,-0.009,-0.019,-0.009,0.014,-0.373,-0.269,0.497
32.6,-0.004,0.020,0.000,-0.019,-0.008,0.014,-0.374,-0.269,0.497
32.6,0.015,0.010,-0.009,-0.019,-0.008,0.014,-0.374,-0.269,0.498
32.6,0.006,0.010,0.000,-0.019,-0.008,0.014,-0.375,-0.270,0.498
32.6,0.005,0.000,0.000,-0.019,-0.007,0.014,-0.375,-0.270,0.499
32.6,-0.004,0.020,0.000,-0.018,-0.007,0.014,-0.376,-0.270,0.499
32.7,0.014,0.020,0.000,-0.018,-0.007,0.014,-0.376,-0.270,0.499
32.7,-0.005,0.020,0.000,-0.018,-0.007,0.014,-0.377,-0.270,0.500
32.7,0.004,0.020,-0.010,-0.018,-0.006,0.014,-0.377,-0.270,0.500
32.7,0.004,0.000,0.000,-0.018,-0.006,0.014,-0.377,-0.270,0.500
32.7,0.004,-0.010,0.000,-0.018,-0.006,0.014,-0.378,-0.271,0.501
32.8,0.013,0.020,0.000,-0.018,-0.005,0.014,-0.379,-0.271,0.501
32.8,0.003,-0.010,0.000,-0.018,-0.005,0.014,-0.379,-0.271,0.501
32.8,-0.006,0.029,0.000,-0.018,-0.005,0.014,-0.380,-0.271,0.502
32.8,-0.006,0.000,-0.010,-0.018,-0.005,0.014,-0.380,-0.271,0.502
32.8,-0.005,0.029,0.000,-0.018,-0.004,0.014,-0.380,-0.271,0.503
32.9,-0.014,0.000,0.000,-0.018,-0.004,0.014,-0.381,-0.272,0.503
32.9,0.006,0.000,0.000,-0.018,-0.004,0.014,-0.381,-0.272,0.503
32.9,-0.014,-0.029,0.001,-0.018,-0.003,0.014,-0.382,-0.272,0.504
32.9,-0.004,0.010,0.001,-0.018,-0.003,0.014,-0.382,-0.272,0.504
32.9,0.005,-0.010,0.001,-0.018,-0.003,0.014,-0.383,-0.272,0.505
33.0,-0.005,0.020,-0.009,-0.018,-0.003,0.014,-0.384,-0.272,0.505
33.0,0.023,-0.010,0.001,-0.018,-0.003,0.014,-0.384,-0.272,0.505
33.0,0.003,-0.010,0.001,-0.018,-0.003,0.014,-0.384,-0.272,0.506
33.0,0.023,-0.020,0.001,-0.018,-0.003,0.014,-0.385,-0.272,0.506
33.0,0.003,0.000,0.000,-0.018,-0.003,0.014,-0.385,-0.272,0.506
33.1,0.003,0.000,-0.009,-0.018,-0.003,0.014,-0.386,-0.272,0.507
33.1,-0.016,0.010,0.000,-0.017,-0.003,0.013,-0.386,-0.272,0.507
33.1,-0.006,0.000,0.000,-0.017,-0.003,0.013,-0.387,-0.272,0.507
33.1,0.013,-0.029,0.000,-0.017,-0.003,0.013,-0.387,-0.273,0.508
33.1,0.003,0.020,-0.008,-0.017,-0.003,0.013,-0.387,-0.273,0.508
33.2,-0.006,-0.010,0.001,-0.017,-0.003,0.013,-0.388,-0.273,0.509
33.2,0.004,-0.010,0.001,-0.017,-0.003,0.013,-0.388,-0.273,0.509
33.2,0.003,-0.020,0.001,-0.017,-0.003,0.013,-0.389,-0.273,0.509
33.2,0.003,-0.020,0.001,-0.017,-0.003,0.013,-0.389,-0.273,0.510
33.2,-0.006,-0.020,0.001,-0.017,-0.004,0.013,-0.390,-0.273,0.510
33.3,0.003,0.010,0.001,-0.017,-0.004,0.013,-0.390,-0.273,0.510
33.3,0.003,-0.020,-0.009,-0.017,-0.004,0.013,-0.391,-0.273,0.510
33.3,0.012,0.000,0.001,-0.017,-0.004,0.013,-0.391,-0.273,0.511
33.3,-0.006,-0.010,0.001,-0.017,-0.004,0.013,-0.392,-0.273,0.511
33.3,0.013,-0.010,0.001,-0.017,-0.004,0.013,-0.392,-0.274,0.511
33.4,0.003,-0.010,-0.008,-0.017,-0.005,0.013,-0.392,-0.274,0.512
33.4,0.021,-0.010,0.001,-0.017,-0.005,0.013,-0.393,-0.274,0.512
33.4,-0.009,-0.010,0.001,-0.016,-0.005,0.013,-0.393,-0.274,0.512
33.4,-0.017,-0.010,0.001,-0.016,-0.005,0.013,-0.394,-0.274,0.513
33.4,-0.007,-0.010,0.001,-0.016,-0.005,0.013,-0.394,-0.274,0.513
33.5,0.002,0.010,0.002,-0.016,-0.006,0.013,-0.395,-0.274,0.514
33.5,-0.007,-0.010,0.002,-0.016,-0.006,0.013,-0.395,-0.274,0.514
33.5,-0.007,-0.029,-0.008,-0.016,-0.006,0.013,-0.395,-0.275,0.514
33.5,-0.006,0.010,0.002,-0.016,-0.006,0.013,-0.395,-0.275,0.514
33.5,0.003,0.010,-0.016,-0.016,-0.007,0.013,-0.396,-0.275,0.515
33.6,-0.006,-0.010,-0.006,-0.016,-0.007,0.013,-0.396,-0.275,0.515
33.6,-0.006,-0.010,0.003,-0.016,-0.007,0.013,-0.397,-0.275,0.515
33.6,0.003,0.020,0.003,-0.016,-0.007,0.013,-0.397,-0.276,0.516
33.6,0.013,-0.020,0.003,-0.016,-0.008,0.013,-0.398,-0.276,0.516
33.6,0.012,-0.010,0.002,-0.016,-0.008,0.013,-0.398,-0.276,0.516
33.7,0.002,0.000,0.002,-0.016,-0.008,0.013,-0.398,-0.276,0.517
33.7,0.012,0.029,0.002,-0.016,-0.008,0.013,-0.399,-0.276,0.517
33.7,-0.007,-0.010,0.002,-0.016,-0.008,0.013,-0.399,-0.276,0.517
33.7,-0.017,0.029,0.002,-0.016,-0.008,0.013,-0.400,-0.277,0.518
33.7,0.003,0.010,0.002,-0.016,-0.008,0.013,-0.400,-0.277,0.518
33.8,0.003,0.010,0.002,-0.016,-0.008,0.013,-0.400,-0.277,0.518
33.8,0.021,0.010,0.002,-0.016,-0.008,0.013,-0.401,-0.277,0.519
33.8,-0.007,0.029,0.002,-0.016,-0.008,0.013,-0.401,-0.277,0.519
33.8,0.002,0.020,0.002,-0.016,-0.008,0.013,-0.402,-0.278,0.519
33.8,0.002,0.010,0.001,-0.016,-0.007,0.013,-0.402,-0.278,0.519
33.9,0.012,0.000,0.001,-0.016,-0.007,0.013,-0.402,-0.278,0.520
33.9,-0.006,-0.010,0.001,-0.016,-0.007,0.013,-0.403,-0.278,0.520
33.9,-0.006,0.020,-0.008,-0.016,-0.007,0.013,-0.403,-0.278,0.520
33.9,0.004,0.020,0.002,-0.016,-0.006,0.013,-0.404,-0.278,0.521
33.9,0.005,0.029,0.002,-0.016,-0.006,0.013,-0.404,-0.279,0.521
34.0,-0.005,0.000,0.002,-0.016,-0.006,0.013,-0.404,-0.279,0.521
34.0,0.005,0.029,0.002,-0.016,-0.006,0.013,-0.405,-0.279,0.522
34.0,-0.004,0.010,-0.007,-0.016,-0.005,0.013,-0.405,-0.279,0.522
34.0,0.005,0.020,0.002,-0.016,-0.005,0.013,-0.406,-0.279,0.523
34.0,-0.005,0.010,0.002,-0.016,-0.005,0.013,-0.406,-0.279,0.523
34.1,0.005,0.020,0.002,-0.016,-0.005,0.013,-0.406,-0.279,0.523
34.1,-0.005,0.010,0.002,-0.015,-0.004,0.013,-0.407,-0.279,0.523
34.1,0.005,0.010,0.002,-0.015,-0.004,0.013,-0.407,-0.280,0.524
34.1,-0.004,0.020,-0.007,-0.015,-0.004,0.013,-0.408,-0.280,0.524
34.1,-0.004,0.020,0.002,-0.016,-0.003,0.013,-0.408,-0.280,0.524
34.2,-0.004,0.020,0.002,-0.016,-0.003,0.013,-0.408,-0.280,0.525
34.2,-0.003,0.020,0.002,-0.016,-0.003,0.013,-0.409,-0.280,0.525
34.2,0.006,0.029,0.002,-0.016,-0.002,0.013,-0.409,-0.280,0.525
34.2,0.006,0.000,0.002,-0.016,-0.002,0.013,-0.409,-0.280,0.526
34.2,0.015,0.029,0.002,-0.016,-0.002,0.013,-0.410,-0.280,0.526
34.3,0.026,0.000,0.002,-0.016,-0.001,0.013,-0.410,-0.280,0.526
34.3,-0.003,0.010,0.002,-0.015,-0.001,0.013,-0.411,-0.280,0.527
34.3,0.006,0.000,0.002,-0.015,-0.001,0.013,-0.411,-0.280,0.527
34.3,-0.003,-0.010,-0.007,-0.015,-0.000,0.013,-0.411,-0.280,0.527
34.3,0.006,0.020,0.002,-0.015,0.000,0.013,-0.412,-0.280,0.528
34.4,0.016,-0.010,0.002,-0.015,0.000,0.013,-0.412,-0.280,0.528
34.4,0.005,0.029,0.002,-0.015,0.001,0.013,-0.413,-0.280,0.528
34.4,0.005,0.010,0.002,-0.015,0.001,0.013,-0.413,-0.280,0.529
34.4,0.005,0.010,0.002,-0.015,0.001,0.013,-0.413,-0.280,0.529
34.4,0.014,0.000,0.002,-0.015,0.002,0.013,-0.414,-0.280,0.529
34.5,0.004,0.000,-0.008,-0.015,0.002,0.013,-0.414,-0.280,0.530
34.5,0.003,0.000,0.001,-0.015,0.002,0.013,-0.414,-0.280,0.530
34.5,-0.006,0.000,-0.008,-0.014,0.002,0.013,-0.415,-0.280,0.530
34.5,-0.006,0.000,-0.008,-0.014,0.002,0.013,-0.415,-0.280,0.531
34.5,-0.005,0.010,0.002,-0.014,0.003,0.013,-0.415,-0.280,0.531
34.6,0.004,0.010,0.002,-0.014,0.003,0.013,-0.416,-0.280,0.531
34.6,-0.005,0.020,0.002,-0.014,0.003,0.013,-0.416,-0.280,0.532
34.6,0.004,-0.020,-0.016,-0.014,0.003,0.013,-0.417,-0.280,0.532
34.6,0.004,0.000,0.003,-0.014,0.003,0.013,-0.417,-0.280,0.532
34.6,0.013,0.000,0.003,-0.014,0.003,0.013,-0.417,-0.280,0.533
34.7,-0.015,0.020,-0.006,-0.014,0.003,0.013,-0.418,-0.279,0.533
34.7,-0.005,0.020,0.004,-0.014,0.003,0.013,-0.418,-0.279,0.533
34.7,0.004,-0.029,0.003,-0.014,0.004,0.013,-0.418,-0.279,0.534
34.7,0.013,-0.010,0.003,-0.014,0.004,0.013,-0.419,-0.279,0.534
34.7,-0.007,0.000,0.003,-0.014,0.004,0.013,-0.419,-0.279,0.534
34.8,-0.006,0.010,-0.006,-0.014,0.004,0.013,-0.419,-0.279,0.535
34.8,0.004,0.000,0.004,-0.014,0.004,0.013,-0.420,-0.279,0.535
34.8,-0.006,0.010,-0.006,-0.014,0.004,0.013,-0.420,-0.279,0.535
34.8,-0.006,-0.010,0.003,-0.014,0.004,0.013,-0.421,-0.279,0.536
34.8,0.004,0.020,0.003,-0.014,0.004,0.013,-0.421,-0.279,0.536
34.9,-0.014,0.000,-0.006,-0.014,0.004,0.013,-0.421,-0.278,0.536
34.9,0.005,0.020,0.003,-0.014,0.004,0.013,-0.422,-0.278,0.537
34.9,-0.005,0.000,0.003,-0.014,0.004,0.013,-0.422,-0.278,0.537
34.9,0.004,-0.010,0.003,-0.014,0.004,0.013,-0.422,-0.278,0.537
34.9,0.004,0.000,0.003,-0.014,0.004,0.013,-0.422,-0.278,0.538
35.0,0.005,0.020,0.003,-0.014,0.004,0.013,-0.423,-0.278,0.538
35.0,0.004,0.000,-0.006,-0.014,0.004,0.013,-0.423,-0.278,0.538
35.0,-0.005,0.010,0.003,-0.014,0.004,0.013,-0.424,-0.278,0.539
35.0,0.004,0.020,0.003,-0.014,0.005,0.013,-0.424,-0.278,0.539
35.0,0.013,0.000,-0.006,-0.014,0.005,0.013,-0.424,-0.277,0.539
35.1,0.003,0.000,0.004,-0.014,0.005,0.013,-0.425,-0.277,0.540
35.1,0.003,-0.010,-0.006,-0.014,0.005,0.013,-0.425,-0.277,0.540
35.1,0.003,0.000,0.004,-0.014,0.005,0.013,-0.425,-0.277,0.540
35.1,0.002,0.000,-0.005,-0.013,0.005,0.013,-0.425,-0.277,0.540
35.1,-0.007,0.010,0.004,-0.013,0.005,0.013,-0.426,-0.277,0.541
35.2,0.003,0.010,0.004,-0.013,0.005,0.013,-0.427,-0.277,0.541
35.2,-0.017,0.020,0.004,-0.013,0.005,0.013,-0.427,-0.277,0.542
35.2,0.012,-0.020,0.003,-0.013,0.005,0.013,-0.427,-0.276,0.542
35.2,0.002,0.010,0.003,-0.013,0.005,0.013,-0.427,-0.276,0.542
35.2,0.003,0.000,0.003,-0.013,0.005,0.013,-0.428,-0.276,0.543
35.3,0.003,0.020,0.003,-0.013,0.005,0.013,-0.428,-0.276,0.543
35.3,0.003,0.000,0.003,-0.013,0.005,0.013,-0.428,-0.276,0.543
35.3,0.012,-0.010,0.003,-0.013,0.005,0.013,-0.429,-0.276,0.544
35.3,-0.008,0.029,-0.017,-0.013,0.005,0.013,-0.429,-0.276,0.544
35.3,-0.007,0.020,0.002,-0.013,0.005,0.013,-0.429,-0.276,0.544
35.4,0.002,0.029,0.002,-0.014,0.005,0.013,-0.430,-0.275,0.545
35.4,0.012,0.000,-0.007,-0.014,0.006,0.013,-0.430,-0.275,0.545
35.4,-0.007,0.010,0.002,-0.014,0.006,0.013,-0.430,-0.275,0.545
35.4,0.003,0.010,0.002,-0.014,0.006,0.013,-0.431,-0.275,0.546
35.4,0.003,0.020,0.002,-0.014,0.006,0.013,-0.431,-0.275,0.546
35.5,0.012,0.020,0.002,-0.014,0.007,0.013,-0.432,-0.275,0.546
35.5,-0.016,0.010,0.010,-0.014,0.007,0.013,-0.432,-0.275,0.547
35.5,0.004,-0.010,0.001,-0.014,0.007,0.013,-0.432,-0.274,0.547
35.5,0.004,0.020,0.001,-0.014,0.007,0.013,-0.433,-0.274,0.547
35.5,-0.006,-0.010,0.001,-0.014,0.007,0.013,-0.433,-0.274,0.548
35.6,0.013,0.029,0.000,-0.014,0.008,0.013,-0.434,-0.274,0.548
35.6,0.013,0.010,0.000,-0.014,0.008,0.013,-0.434,-0.273,0.549
35.6,0.001,0.000,0.009,-0.014,0.009,0.013,-0.434,-0.273,0.549
35.6,0.001,0.020,-0.000,-0.013,0.009,0.013,-0.435,-0.273,0.549
35.6,-0.028,0.010,-0.039,-0.013,0.009,0.013,-0.435,-0.273,0.550
35.7,0.029,0.029,-0.231,-0.013,0.010,0.013,-0.435,-0.272,0.550
35.7,-0.028,0.000,0.048,-0.013,0.010,0.013,-0.436,-0.272,0.550
35.7,0.011,0.020,-0.000,-0.013,0.011,0.012,-0.436,-0.272,0.551
35.7,0.020,0.000,-0.000,-0.013,0.011,0.011,-0.437,-0.272,0.551
35.7,-0.028,0.039,0.017,-0.013,0.012,0.011,-0.437,-0.271,0.552
35.8,0.001,0.020,0.007,-0.013,0.012,0.011,-0.437,-0.271,0.552
35.8,0.031,0.039,0.026,-0.013,0.012,0.011,-0.438,-0.271,0.552
35.8,0.009,0.039,-0.012,-0.013,0.013,0.010,-0.438,-0.270,0.552
35.8,-0.027,-0.029,0.033,-0.013,0.013,0.010,-0.438,-0.270,0.553
35.8,-0.034,0.039,0.129,-0.013,0.014,0.010,-0.439,-0.269,0.553
35.9,0.005,-0.029,0.070,-0.013,0.014,0.010,-0.439,-0.269,0.553
35.9,-0.004,-0.020,-0.034,-0.013,0.015,0.011,-0.439,-0.269,0.553
35.9,-0.004,0.010,-0.013,-0.013,0.015,0.011,-0.440,-0.268,0.554
35.9,0.016,0.000,0.006,-0.013,0.016,0.011,-0.440,-0.268,0.554
35.9,-0.003,0.029,-0.007,-0.013,0.016,0.011,-0.441,-0.267,0.555
36.0,-0.012,0.000,-0.015,-0.013,0.016,0.011,-0.441,-0.267,0.555
36.0,0.025,0.029,-0.014,-0.014,0.017,0.011,-0.442,-0.266,0.555
36.0,0.015,-0.029,-0.014,-0.013,0.017,0.011,-0.442,-0.266,0.555
36.0,0.023,0.010,-0.012,-0.013,0.017,0.011,-0.442,-0.265,0.556
36.0,-0.015,0.010,-0.012,-0.013,0.018,0.011,-0.443,-0.265,0.556
36.1,-0.015,-0.010,-0.012,-0.013,0.018,0.011,-0.443,-0.264,0.556
36.1,-0.005,-0.010,0.007,-0.013,0.018,0.011,-0.443,-0.264,0.557
36.1,-0.015,0.020,-0.002,-0.013,0.018,0.011,-0.443,-0.264,0.557
36.1,0.014,-0.010,-0.011,-0.013,0.018,0.011,-0.444,-0.263,0.557
36.1,-0.005,0.000,-0.010,-0.013,0.018,0.011,-0.444,-0.263,0.557
36.2,0.015,-0.020,-0.000,-0.013,0.018,0.011,-0.444,-0.262,0.558
36.2,-0.004,0.010,0.018,-0.013,0.018,0.011,-0.445,-0.262,0.558
36.2,-0.013,-0.010,-0.002,-0.013,0.018,0.010,-0.445,-0.261,0.558
36.2,0.007,0.010,-0.012,-0.013,0.018,0.010,-0.446,-0.261,0.558
36.2,-0.012,-0.010,-0.011,-0.014,0.018,0.010,-0.446,-0.260,0.559
36.3,0.007,0.039,0.035,-0.014,0.018,0.010,-0.446,-0.260,0.559
36.3,-0.003,-0.108,-0.063,-0.014,0.018,0.010,-0.447,-0.259,0.559
36.3,-0.029,0.069,-0.013,-0.014,0.018,0.010,-0.447,-0.259,0.560
36.3,0.010,0.029,0.056,-0.014,0.018,0.010,-0.447,-0.259,0.560
36.3,-0.018,0.029,-0.002,-0.014,0.018,0.010,-0.448,-0.258,0.560
36.4,0.011,-0.020,0.007,-0.014,0.018,0.010,-0.448,-0.258,0.560
36.4,-0.009,0.000,-0.012,-0.014,0.018,0.010,-0.448,-0.257,0.560
36.4,0.009,-0.029,-0.010,-0.014,0.018,0.010,-0.449,-0.256,0.561
36.4,-0.001,-0.010,0.008,-0.014,0.018,0.010,-0.449,-0.256,0.561
36.4,-0.011,0.010,-0.001,-0.014,0.018,0.010,-0.449,-0.256,0.561
36.5,0.000,-0.010,-0.010,-0.014,0.018,0.009,-0.450,-0.255,0.562
36.5,0.027,0.020,-0.000,-0.014,0.018,0.009,-0.450,-0.255,0.562
36.5,-0.002,-0.029,-0.000,-0.014,0.017,0.009,-0.451,-0.254,0.562
36.5,0.017,0.020,-0.000,-0.014,0.017,0.009,-0.451,-0.254,0.562
36.5,0.016,-0.020,-0.009,-0.014,0.017,0.009,-0.451,-0.253,0.563
36.6,-0.013,0.020,-0.009,-0.014,0.017,0.009,-0.452,-0.253,0.563
36.6,-0.004,-0.020,0.001,-0.014,0.017,0.009,-0.452,-0.252,0.563
36.6,-0.013,0.029,0.001,-0.014,0.017,0.009,-0.453,-0.252,0.563
36.6,0.016,-0.049,-0.028,-0.014,0.016,0.008,-0.453,-0.252,0.563
36.6,-0.012,-0.020,0.017,-0.014,0.016,0.008,-0.453,-0.251,0.564
36.7,-0.029,-0.029,-0.003,-0.014,0.016,0.008,-0.454,-0.251,0.564
36.7,0.000,0.010,-0.003,-0.014,0.016,0.008,-0.454,-0.250,0.564
36.7,-0.009,-0.010,-0.002,-0.014,0.016,0.008,-0.454,-0.250,0.564
36.7,0.010,0.010,-0.002,-0.014,0.015,0.007,-0.455,-0.249,0.565
36.7,-0.000,-0.010,-0.002,-0.014,0.015,0.007,-0.455,-0.249,0.565
36.8,0.009,-0.020,-0.002,-0.014,0.015,0.007,-0.455,-0.249,0.565
36.8,-0.019,-0.010,-0.002,-0.014,0.015,0.007,-0.456,-0.248,0.565
36.8,-0.009,0.000,-0.002,-0.014,0.015,0.007,-0.456,-0.248,0.565
36.8,-0.008,-0.029,-0.002,-0.014,0.015,0.007,-0.456,-0.248,0.565
36.8,-0.008,-0.020,-0.002,-0.014,0.014,0.007,-0.457,-0.247,0.566
36.9,0.011,-0.020,-0.002,-0.014,0.014,0.006,-0.457,-0.247,0.566
36.9,0.010,0.010,-0.001,-0.014,0.014,0.006,-0.458,-0.246,0.566
36.9,0.020,0.010,-0.001,-0.014,0.014,0.006,-0.458,-0.246,0.566
36.9,0.018,-0.020,-0.001,-0.014,0.014,0.006,-0.458,-0.246,0.566
36.9,0.008,0.010,-0.001,-0.014,0.013,0.006,-0.459,-0.245,0.566
37.0,0.008,-0.029,-0.001,-0.014,0.013,0.006,-0.459,-0.245,0.567
37.0,-0.020,0.000,-0.001,-0.014,0.013,0.006,-0.459,-0.245,0.567
37.0,-0.010,0.000,-0.001,-0.014,0.013,0.006,-0.459,-0.245,0.567
37.0,-0.002,0.010,-0.001,-0.014,0.012,0.006,-0.460,-0.244,0.567
37.0,0.007,-0.010,-0.001,-0.014,0.012,0.006,-0.460,-0.244,0.567
37.1,-0.002,0.000,-0.001,-0.013,0.012,0.006,-0.461,-0.244,0.567
37.1,0.007,0.010,-0.001,-0.013,0.012,0.006,-0.461,-0.243,0.567
37.1,0.015,0.010,-0.001,-0.013,0.012,0.006,-0.461,-0.243,0.568
37.1,-0.024,0.000,-0.001,-0.013,0.012,0.006,-0.462,-0.243,0.568
37.1,-0.004,-0.010,-0.001,-0.013,0.012,0.006,-0.462,-0.242,0.568
37.2,-0.014,0.010,-0.001,-0.013,0.012,0.006,-0.462,-0.242,0.568
37.2,0.007,0.000,-0.001,-0.013,0.012,0.006,-0.463,-0.242,0.568
37.2,-0.003,0.010,-0.000,-0.013,0.012,0.006,-0.463,-0.241,0.568
37.2,0.007,0.000,-0.000,-0.013,0.012,0.006,-0.463,-0.241,0.568
37.2,0.015,0.010,-0.000,-0.013,0.012,0.006,-0.463,-0.241,0.568
37.3,0.014,-0.010,-0.000,-0.013,0.012,0.006,-0.464,-0.241,0.569
37.3,0.004,0.000,-0.010,-0.013,0.012,0.006,-0.464,-0.240,0.569
37.3,-0.023,-0.010,-0.000,-0.013,0.012,0.005,-0.465,-0.240,0.569
