time,acc_x,acc_y,acc_z,vel_x,vel_y,vel_z,pos_x,pos_y,pos_z
0.02,-0.038,0.002,0.275,0.000,0.000,0.000,0.000,0.000,0.000
0.04,-0.045,-0.000,0.236,0.000,0.000,0.000,0.000,0.000,0.000
0.06,-0.013,-0.011,0.216,0.000,0.000,0.000,0.000,0.000,0.000
0.08,-0.011,-0.010,0.226,0.000,0.000,0.000,0.000,0.000,0.000
0.10,0.008,0.027,0.216,0.000,0.000,0.000,0.000,0.000,0.000
0.12,-0.002,0.015,0.206,0.000,0.000,0.000,0.000,0.000,0.000
0.14,-0.028,0.005,0.235,0.000,0.000,0.000,0.000,0.000,0.000
0.16,-0.028,-0.014,0.196,0.000,0.000,0.000,0.000,0.000,0.000
0.18,0.002,-0.003,0.206,0.000,0.000,0.000,0.000,0.000,0.000
0.20,0.001,0.006,0.216,0.000,0.000,0.000,0.000,0.000,0.000
0.22,-0.007,-0.012,0.186,0.000,0.000,0.000,0.000,0.000,0.000
0.24,-0.007,0.007,0.186,0.000,0.000,0.000,0.000,0.000,0.000
0.26,0.003,0.006,0.186,0.000,0.000,0.000,0.000,0.000,0.000
0.28,-0.016,-0.003,0.177,0.000,0.000,0.000,0.000,0.000,0.000
0.30,-0.005,-0.001,0.177,0.000,0.000,0.000,0.000,0.000,0.000
0.32,0.005,0.001,0.157,0.000,0.000,0.000,0.000,0.000,0.000
0.34,0.014,0.019,0.177,0.000,0.000,0.000,0.000,0.000,0.000
0.36,-0.014,-0.010,0.157,0.000,0.000,0.000,0.000,0.000,0.000
0.38,-0.004,-0.018,0.137,0.000,0.000,0.000,0.000,0.000,0.000
0.40,0.006,0.020,0.147,0.000,0.000,0.000,0.000,0.000,0.000
0.42,-0.004,-0.010,0.128,0.000,0.000,0.000,0.000,0.000,0.000
0.44,-0.004,-0.017,0.118,0.000,0.000,0.000,0.000,0.000,0.000
0.46,0.006,0.021,0.118,0.000,0.000,0.000,0.000,0.000,0.000
0.48,-0.004,0.002,0.118,0.000,0.000,0.000,0.000,0.000,0.000
0.50,-0.004,0.001,0.000,0.000,0.000,0.000,0.000,0.000,0.000
0.52,-0.004,0.011,0.010,0.000,0.000,0.000,0.000,0.000,0.000
0.54,0.005,-0.010,0.000,0.000,0.000,0.000,0.000,0.000,0.000
0.56,-0.004,-0.027,-0.020,0.000,0.000,0.000,0.000,0.000,0.000
0.58,-0.014,-0.046,-0.059,0.000,0.000,0.000,0.000,0.000,0.000
0.60,-0.004,0.074,0.059,0.000,0.000,0.000,0.000,0.000,0.000
0.62,-0.003,-0.058,-0.029,0.000,0.000,0.000,0.000,0.000,0.000
0.64,0.016,-0.058,-0.029,0.000,0.000,0.000,0.000,0.000,0.000
0.66,-0.003,0.010,0.000,0.000,0.000,0.000,0.000,0.000,0.000
0.68,-0.003,-0.049,-0.049,0.000,0.000,0.000,0.000,0.000,0.000
0.70,-0.005,-0.045,-0.059,0.000,0.000,0.000,0.000,0.000,0.000
0.72,-0.023,-0.068,-0.020,0.000,0.000,0.000,0.000,0.000,0.000
0.74,0.016,0.030,-0.010,0.000,0.000,0.000,0.000,0.000,0.000
0.76,-0.023,-0.061,-0.059,0.000,0.000,0.000,0.000,0.000,0.000
0.78,0.015,-0.038,-0.049,0.000,0.000,0.000,0.000,0.000,0.000
0.80,0.005,-0.038,-0.039,0.000,0.000,0.000,0.000,0.000,0.000
0.82,0.005,0.028,-0.029,0.000,0.000,0.000,0.000,0.000,0.000
0.84,-0.013,-0.055,-0.059,0.000,0.000,0.000,0.000,0.000,0.000
0.86,-0.013,-0.016,-0.059,0.000,0.000,0.000,0.000,0.000,0.000
0.88,-0.003,0.030,-0.029,0.000,0.000,0.000,0.000,0.000,0.000
0.90,-0.013,-0.018,-0.039,0.000,0.000,0.000,0.000,0.000,0.000
0.92,0.016,-0.027,-0.069,0.000,0.000,0.000,0.000,0.000,0.000
0.94,-0.003,-0.042,-0.069,0.000,0.000,0.000,0.000,0.000,0.000
0.96,-0.003,0.036,-0.049,0.000,0.000,0.000,0.000,0.000,0.000
0.98,-0.003,0.033,-0.059,0.000,0.000,0.000,0.000,0.000,0.000
1.00,-0.012,-0.015,-0.069,0.000,0.000,0.000,0.000,0.000,0.000
1.02,-0.002,0.015,-0.069,0.000,0.000,0.000,0.000,0.000,0.000
1.04,-0.002,-0.004,-0.069,0.000,0.000,0.000,0.000,0.000,0.000
1.06,-0.002,-0.004,-0.078,0.000,0.000,0.000,0.000,0.000,0.000
1.08,0.008,-0.011,-0.088,0.000,0.000,0.000,0.000,0.000,0.000
1.10,0.016,0.035,-0.069,0.000,0.000,0.000,0.000,0.000,0.000
1.12,-0.003,-0.014,-0.088,0.000,0.000,0.000,0.000,0.000,0.000
1.14,-0.003,0.017,-0.088,0.000,0.000,0.000,0.000,0.000,0.000
1.16,-0.003,-0.002,-0.108,0.000,0.000,0.000,0.000,0.000,0.000
1.18,0.007,0.008,-0.108,0.000,0.000,0.000,0.000,0.000,0.000
1.20,0.024,-0.011,-0.108,0.000,0.000,0.000,0.000,0.000,0.000
1.22,0.005,-0.040,-0.127,0.000,0.000,0.000,0.000,0.000,0.000
1.24,-0.005,0.019,-0.108,0.000,0.000,0.000,0.000,0.000,0.000
1.26,-0.004,-0.010,-0.118,0.000,0.000,0.000,0.000,0.000,0.000
1.28,-0.004,-0.010,-0.127,0.000,0.000,0.000,0.000,0.000,0.000
1.30,-0.004,0.002,-0.127,0.000,0.000,0.000,0.000,0.000,0.000
1.32,0.005,0.011,-0.127,0.000,0.000,0.000,0.000,0.000,0.000
1.34,0.005,-0.018,-0.137,0.000,0.000,0.000,0.000,0.000,0.000
1.36,-0.004,-0.026,-0.147,0.000,0.000,0.000,0.000,0.000,0.000
1.38,-0.004,0.003,-0.127,0.000,0.000,0.000,0.000,0.000,0.000
1.40,-0.004,-0.006,-0.127,0.000,0.000,0.000,0.000,0.000,0.000
1.42,-0.004,-0.006,-0.147,0.000,0.000,0.000,0.000,0.000,0.000
1.44,-0.004,-0.026,-0.147,0.000,0.000,0.000,0.000,0.000,0.000
1.46,0.005,0.014,-0.147,0.000,0.000,0.000,0.000,0.000,0.000
1.48,0.005,-0.005,-0.147,0.000,0.000,0.000,0.000,0.000,0.000
1.50,-0.004,-0.034,0.000,0.000,0.000,0.000,0.000,0.000,0.000
1.52,-0.003,-0.004,0.000,0.000,0.000,0.000,0.000,0.000,0.000
1.54,-0.013,0.006,-0.010,0.000,0.000,0.000,0.000,0.000,0.000
1.56,-0.003,-0.004,-0.010,0.000,0.000,0.000,0.000,0.000,0.000
1.58,-0.003,-0.013,-0.019,0.000,0.000,0.000,0.000,0.000,0.000
1.60,0.007,0.016,-0.010,0.000,0.000,0.000,0.000,0.000,0.000
1.62,-0.003,0.006,0.000,0.000,0.000,0.000,0.000,0.000,0.000
1.64,-0.002,-0.012,-0.010,0.000,0.000,0.000,0.000,0.000,0.000
1.66,-0.002,0.007,-0.020,0.000,0.000,0.000,0.000,0.000,0.000
1.68,-0.002,-0.002,-0.020,0.000,0.000,0.000,0.000,0.000,0.000
1.70,-0.002,0.007,0.000,0.000,0.000,0.000,0.000,0.000,0.000
1.72,0.007,-0.022,-0.029,0.000,0.000,0.000,0.000,0.000,0.000
1.74,-0.003,-0.011,-0.010,0.000,0.000,0.000,0.000,0.000,0.000
1.76,-0.003,0.018,-0.020,0.000,0.000,0.000,0.000,0.000,0.000
1.78,-0.002,0.008,-0.029,0.000,0.000,0.000,0.000,0.000,0.000
1.80,-0.002,-0.002,-0.029,0.000,0.000,0.000,0.000,0.000,0.000
1.82,-0.002,-0.021,-0.029,0.000,0.000,0.000,0.000,0.000,0.000
1.84,-0.002,0.007,-0.020,0.000,0.000,0.000,0.000,0.000,0.000
1.86,-0.002,-0.002,-0.020,0.000,0.000,0.000,0.000,0.000,0.000
1.88,-0.002,-0.001,-0.029,0.000,0.000,0.000,0.000,0.000,0.000
1.90,-0.002,-0.001,-0.029,0.000,0.000,0.000,0.000,0.000,0.000
1.92,-0.002,-0.001,-0.029,0.000,0.000,0.000,0.000,0.000,0.000
1.94,-0.002,-0.020,-0.029,0.000,0.000,0.000,0.000,0.000,0.000
1.96,-0.002,-0.009,-0.029,0.000,0.000,0.000,0.000,0.000,0.000
1.98,0.008,0.020,-0.029,0.000,0.000,0.000,0.000,0.000,0.000
2.00,0.007,0.009,-0.020,0.000,0.000,0.000,0.000,0.000,0.000
2.02,-0.002,-0.018,-0.049,0.000,0.000,0.000,0.000,0.000,0.000
2.04,-0.002,0.040,-0.010,0.000,0.000,0.000,0.000,0.000,0.000
2.06,-0.002,0.028,-0.029,0.000,0.000,0.000,0.000,0.000,0.000
2.08,-0.002,-0.011,-0.049,0.000,0.000,0.000,0.000,0.000,0.000
2.10,0.008,-0.018,-0.039,0.000,0.000,0.000,0.000,0.000,0.000
2.12,0.007,0.047,0.000,0.000,0.000,0.000,0.000,0.000,0.000
2.14,0.007,0.047,-0.039,0.000,0.000,0.000,0.000,0.000,0.000
2.16,-0.002,-0.020,-0.059,0.000,0.000,0.000,0.000,0.000,0.000
2.18,0.007,0.008,-0.029,0.000,0.000,0.000,0.000,0.000,0.000
2.20,-0.003,0.028,-0.049,0.000,0.000,0.000,0.000,0.000,0.000
2.22,0.006,0.044,-0.010,0.000,0.000,0.000,0.000,0.000,0.000
2.24,-0.003,-0.044,-0.049,0.000,0.000,0.000,0.000,0.000,0.000
2.26,0.006,0.028,-0.029,0.000,0.000,0.000,0.000,0.000,0.000
2.28,-0.003,0.025,-0.029,0.000,0.000,0.000,0.000,0.000,0.000
2.30,-0.002,-0.043,0.000,0.000,0.000,0.000,0.000,0.000,0.000
2.32,-0.002,-0.039,-0.010,0.000,0.000,0.000,0.000,0.000,0.000
2.34,-0.002,0.045,0.030,0.000,0.000,0.000,0.000,0.000,0.000
2.36,-0.002,0.015,0.020,0.000,0.000,0.000,0.000,0.000,0.000
2.38,-0.002,-0.040,-0.010,0.000,0.000,0.000,0.000,0.000,0.000
2.40,-0.002,-0.040,0.000,0.000,0.000,0.000,0.000,0.000,0.000
2.42,0.006,0.026,0.039,0.000,0.000,0.000,0.000,0.000,0.000
2.44,-0.003,-0.012,0.010,0.000,0.000,0.000,0.000,0.000,0.000
2.46,-0.003,-0.042,0.000,0.000,0.000,0.000,0.000,0.000,0.000
2.48,-0.003,-0.029,0.010,0.000,0.000,0.000,0.000,0.000,0.000
2.50,0.006,0.027,0.020,0.000,0.000,0.000,0.000,0.000,0.000
2.52,-0.003,-0.022,0.010,0.000,0.000,0.000,0.000,0.000,0.000
2.54,-0.003,-0.002,0.020,0.000,0.000,0.000,0.000,0.000,0.000
2.56,-0.003,0.017,0.030,0.000,0.000,0.000,0.000,0.000,0.000
2.58,-0.003,-0.021,0.000,0.000,0.000,0.000,0.000,0.000,0.000
2.60,-0.002,-0.019,0.010,0.000,0.000,0.000,0.000,0.000,0.000
2.62,0.007,0.001,0.020,0.000,0.000,0.000,0.000,0.000,0.000
2.64,0.007,0.019,0.020,0.000,0.000,0.000,0.000,0.000,0.000
2.66,-0.003,-0.037,0.010,0.000,0.000,0.000,0.000,0.000,0.000
2.68,-0.003,-0.007,0.010,0.000,0.000,0.000,0.000,0.000,0.000
2.70,-0.003,0.020,0.020,0.000,0.000,0.000,0.000,0.000,0.000
2.72,0.006,-0.008,0.020,0.000,0.000,0.000,0.000,0.000,0.000
2.74,0.006,-0.028,0.010,0.000,0.000,0.000,0.000,0.000,0.000
2.76,0.006,0.001,0.010,0.000,0.000,0.000,0.000,0.000,0.000
2.78,-0.004,0.021,0.020,0.000,0.000,0.000,0.000,0.000,0.000
2.80,-0.003,-0.027,0.000,0.000,0.000,0.000,0.000,0.000,0.000
2.82,-0.003,0.011,0.020,0.000,0.000,0.000,0.000,0.000,0.000
2.84,-0.003,0.011,0.020,0.000,0.000,0.000,0.000,0.000,0.000
2.86,0.006,0.001,0.010,0.000,0.000,0.000,0.000,0.000,0.000
2.88,0.006,-0.009,0.010,0.000,0.000,0.000,0.000,0.000,0.000
2.90,0.006,0.002,0.020,0.000,0.000,0.000,0.000,0.000,0.000
2.92,-0.003,0.011,0.030,0.000,0.000,0.000,0.000,0.000,0.000
2.94,0.007,0.001,0.000,0.000,0.000,0.000,0.000,0.000,0.000
2.96,-0.003,-0.008,0.000,0.000,0.000,0.000,0.000,0.000,0.000
2.98,-0.002,0.011,0.020,0.000,0.000,0.000,0.000,0.000,0.000
3.00,-0.002,0.011,0.039,0.000,0.000,0.000,0.000,0.000,0.000
3.02,-0.002,-0.017,0.020,0.000,0.000,0.000,0.000,0.000,0.000
3.04,0.007,0.003,0.020,0.000,0.000,0.000,0.000,0.000,0.000
3.06,0.018,0.011,0.020,0.000,0.000,0.000,0.000,0.000,0.000
3.08,-0.002,0.002,0.020,0.000,0.000,0.000,0.000,0.000,0.000
3.10,-0.002,-0.008,0.000,0.000,0.000,0.000,0.000,0.000,0.000
3.12,-0.002,0.001,0.010,0.000,0.000,0.000,0.000,0.000,0.000
3.14,0.007,0.010,0.010,0.000,0.000,0.000,0.000,0.000,0.000
3.16,-0.002,0.000,0.000,0.000,0.000,0.000,0.000,0.000,0.000
3.18,0.007,-0.008,0.010,0.000,0.000,0.000,0.000,0.000,0.000
3.20,-0.003,0.011,0.020,0.000,0.000,0.000,0.000,0.000,0.000
3.22,-0.004,0.000,0.020,0.000,0.000,0.000,0.000,0.000,0.000
3.24,0.006,0.000,0.020,0.000,0.000,0.000,0.000,0.000,0.000
3.26,-0.004,0.010,0.020,0.000,0.000,0.000,0.000,0.000,0.000
3.28,0.005,-0.000,0.010,0.000,0.000,0.000,0.000,0.000,0.000
3.30,-0.004,-0.009,0.010,0.000,0.000,0.000,0.000,0.000,0.000
3.32,0.005,0.020,0.029,0.000,0.000,0.000,0.000,0.000,0.000
3.34,-0.004,0.018,0.020,0.000,0.000,0.000,0.000,0.000,0.000
3.36,-0.003,-0.019,0.010,0.000,0.000,0.000,0.000,0.000,0.000
3.38,-0.003,-0.009,0.020,0.000,0.000,0.000,0.000,0.000,0.000
3.40,0.006,0.018,0.049,0.000,0.000,0.000,0.000,0.000,0.000
3.42,-0.004,0.008,0.039,0.000,0.000,0.000,0.000,0.000,0.000
3.44,-0.004,-0.010,0.029,0.000,0.000,0.000,0.000,0.000,0.000
3.46,-0.003,-0.009,0.029,0.000,0.000,0.000,0.000,0.000,0.000
3.48,-0.003,0.020,0.029,0.000,0.000,0.000,0.000,0.000,0.000
3.50,-0.003,0.009,0.039,0.000,0.000,0.000,0.000,0.000,0.000
3.52,-0.003,0.009,0.049,0.000,0.000,0.000,0.000,0.000,0.000
3.54,-0.003,0.009,0.039,0.000,0.000,0.000,0.000,0.000,0.000
3.56,-0.002,-0.001,0.049,0.000,0.000,0.000,0.000,0.000,0.000
3.58,-0.002,-0.011,0.029,0.000,0.000,0.000,0.000,0.000,0.000
3.60,-0.002,0.008,0.039,0.000,0.000,0.000,0.000,0.000,0.000
3.62,-0.002,0.007,0.049,0.000,0.000,0.000,0.000,0.000,0.000
3.64,0.008,-0.002,0.039,0.000,0.000,0.000,0.000,0.000,0.000
3.66,-0.002,-0.002,0.039,0.000,0.000,0.000,0.000,0.000,0.000
3.68,0.008,0.008,0.049,0.000,0.000,0.000,0.000,0.000,0.000
3.70,0.007,-0.004,0.049,0.000,0.000,0.000,0.000,0.000,0.000
3.72,-0.002,-0.003,0.049,0.000,0.000,0.000,0.000,0.000,0.000
3.74,-0.002,-0.013,0.039,0.000,0.000,0.000,0.000,0.000,0.000
3.76,-0.002,0.015,0.059,0.000,0.000,0.000,0.000,0.000,0.000
3.78,0.007,-0.013,0.039,0.000,0.000,0.000,0.000,0.000,0.000
3.80,-0.002,0.006,0.059,0.000,0.000,0.000,0.000,0.000,0.000
3.82,0.007,0.006,0.049,0.000,0.000,0.000,0.000,0.000,0.000
3.84,0.007,0.006,0.049,0.000,0.000,0.000,0.000,0.000,0.000
3.86,-0.003,0.005,0.049,0.000,0.000,0.000,0.000,0.000,0.000
3.88,-0.002,-0.013,0.049,0.000,0.000,0.000,0.000,0.000,0.000
3.90,0.007,0.006,0.000,0.000,0.000,0.000,0.000,0.000,0.000
3.92,-0.003,0.006,-0.010,0.000,0.000,0.000,0.000,0.000,0.000
3.94,-0.003,-0.014,-0.020,0.000,0.000,0.000,0.000,0.000,0.000
3.96,0.006,0.006,-0.010,0.000,0.000,0.000,0.000,0.000,0.000
3.98,-0.003,0.006,0.000,0.000,0.000,0.000,0.000,0.000,0.000
4.00,-0.003,-0.004,0.000,0.000,0.000,0.000,0.000,0.000,0.000
4.02,-0.003,-0.022,-0.010,-0.000,-0.000,-0.000,-0.000,-0.000,-0.000
4.04,-0.003,0.008,-0.010,-0.000,-0.000,-0.000,-0.000,-0.000,-0.000
4.06,0.007,-0.003,0.010,-0.000,-0.000,-0.000,-0.000,-0.000,-0.000
4.08,0.006,-0.002,-0.010,-0.000,-0.000,-0.000,-0.000,-0.000,-0.000
4.10,0.006,-0.002,0.000,-0.000,-0.000,-0.000,-0.000,-0.000,-0.000
4.12,-0.003,0.007,-0.000,0.000,-0.000,-0.000,-0.000,-0.000,-0.000
4.14,0.006,-0.011,-0.010,0.000,-0.000,-0.000,-0.000,-0.000,-0.000
4.16,-0.003,-0.011,-0.030,0.000,-0.000,-0.000,0.000,-0.000,-0.000
4.18,-0.003,-0.001,-0.010,0.000,-0.000,-0.000,0.000,-0.000,-0.000
4.20,-0.003,0.008,-0.010,0.000,-0.000,-0.001,0.000,-0.000,-0.000
4.22,0.007,0.008,-0.010,0.000,-0.000,-0.001,0.000,-0.000,-0.000
4.24,-0.003,-0.002,-0.010,0.000,-0.000,-0.001,0.000,-0.000,-0.000
4.26,-0.003,0.008,0.010,0.000,-0.000,-0.001,0.000,-0.000,-0.000
4.28,-0.002,-0.002,-0.020,0.000,-0.000,-0.001,0.000,-0.000,-0.000
4.30,-0.002,-0.001,-0.000,0.000,-0.000,-0.001,0.000,-0.000,-0.000
4.32,-0.002,0.018,-0.000,0.000,-0.000,-0.001,0.000,-0.000,-0.000
4.34,0.007,0.008,0.010,0.000,-0.000,-0.001,0.000,-0.000,-0.000
4.36,0.007,-0.002,0.010,0.000,0.000,-0.002,0.000,-0.000,-0.000
4.38,-0.003,-0.003,-0.000,0.000,0.000,-0.002,0.000,-0.000,-0.000
4.40,-0.002,0.015,0.000,0.000,0.000,-0.002,0.000,-0.000,-0.000
4.42,-0.002,0.015,0.000,0.000,0.000,-0.002,0.000,-0.000,-0.000
4.44,-0.002,-0.004,-0.000,-0.000,0.000,-0.002,0.000,-0.000,-0.000
4.46,0.007,0.005,0.010,-0.000,0.001,-0.002,0.000,-0.000,-0.000
4.48,-0.003,-0.004,0.020,0.000,0.001,-0.002,0.000,-0.000,-0.001
4.50,-0.003,-0.004,0.000,0.000,0.001,-0.002,0.000,-0.000,-0.001
4.52,-0.003,-0.014,0.010,0.000,0.001,-0.002,0.000,0.000,-0.001
4.54,0.006,-0.004,0.010,0.000,0.001,-0.002,0.000,0.000,-0.001
4.56,0.006,0.006,0.020,0.000,0.001,-0.001,0.000,0.000,-0.001
4.58,-0.004,0.006,0.010,0.000,0.001,-0.001,0.000,0.000,-0.001
4.60,-0.003,-0.004,0.010,0.000,0.001,-0.001,0.000,0.000,-0.001
4.62,0.006,0.006,0.010,0.000,0.001,-0.001,0.000,0.000,-0.001
4.64,0.006,0.005,0.020,0.000,0.001,-0.001,0.000,0.000,-0.001
4.66,-0.004,-0.004,0.010,0.000,0.001,-0.000,0.000,0.000,-0.001
4.68,-0.004,-0.004,0.020,0.000,0.001,-0.000,0.000,0.000,-0.001
4.70,0.006,0.014,0.020,0.000,0.001,-0.000,0.000,0.000,-0.001
4.72,0.005,-0.005,0.000,0.000,0.001,0.000,0.000,0.000,-0.001
4.74,0.005,-0.005,0.000,0.000,0.001,0.001,0.000,0.000,-0.001
4.76,-0.004,-0.004,0.000,0.000,0.001,0.001,0.000,0.000,-0.001
4.78,0.005,0.015,0.000,0.000,0.001,0.001,0.000,0.000,-0.001
4.80,-0.004,-0.013,0.000,0.000,0.001,0.001,0.000,0.000,-0.001
4.82,-0.004,-0.003,0.010,0.000,0.001,0.001,0.000,0.000,-0.001
4.84,-0.004,0.006,0.000,0.000,0.001,0.001,0.000,0.000,-0.001
4.86,-0.003,-0.003,-0.010,0.000,0.001,0.001,0.000,0.000,-0.001
4.88,-0.003,-0.003,0.000,0.000,0.001,0.002,0.000,0.000,-0.001
4.90,-0.003,-0.012,-0.010,0.000,0.001,0.002,0.000,0.000,-0.001
4.92,0.007,0.007,0.010,0.000,0.001,0.002,0.000,0.000,-0.001
4.94,0.007,0.017,-0.010,0.000,0.001,0.002,0.000,0.000,-0.000
4.96,-0.002,-0.003,0.000,0.000,0.001,0.002,0.000,0.000,-0.000
4.98,-0.002,-0.003,0.000,0.000,0.001,0.002,0.000,0.000,-0.000
5.00,-0.002,0.006,-0.010,0.000,0.001,0.002,0.000,0.001,-0.000
5.02,-0.002,0.006,-0.010,0.000,0.001,0.002,0.000,0.001,-0.000
5.04,0.008,0.016,0.010,0.000,0.001,0.002,0.000,0.001,-0.000
5.06,0.007,0.005,-0.010,0.000,0.001,0.002,0.000,0.001,-0.000
5.08,-0.003,0.005,0.000,0.000,0.001,0.002,0.000,0.001,-0.000
5.10,-0.002,-0.013,0.000,0.000,0.001,0.002,0.000,0.001,-0.000
5.12,-0.002,-0.003,-0.020,0.000,0.001,0.002,0.000,0.001,-0.000
5.14,0.007,0.026,0.000,0.000,0.001,0.002,0.000,0.001,-0.000
5.16,-0.002,0.005,0.000,0.000,0.002,0.001,0.000,0.001,-0.000
5.18,-0.002,-0.014,-0.010,0.000,0.002,0.001,0.000,0.001,-0.000
5.20,0.007,-0.013,-0.010,0.000,0.002,0.001,0.000,0.001,0.000
5.22,0.006,0.015,0.000,0.000,0.002,0.001,0.000,0.001,0.000
5.24,-0.003,0.005,0.000,0.000,0.002,0.001,0.000,0.001,0.000
5.26,-0.003,-0.013,0.000,0.000,0.002,0.001,0.000,0.001,0.000
5.28,0.007,-0.003,-0.010,0.000,0.002,0.001,0.000,0.001,0.000
5.30,-0.003,0.006,-0.020,0.000,0.002,0.001,0.000,0.001,0.000
5.32,0.006,-0.003,-0.010,0.000,0.002,0.001,0.000,0.001,0.000
5.34,-0.003,-0.013,-0.010,0.000,0.002,0.001,0.000,0.001,0.000
5.36,-0.003,-0.003,0.000,0.000,0.002,0.001,0.000,0.001,0.000
5.38,0.007,0.016,0.000,0.000,0.002,0.000,0.000,0.001,0.000
5.40,-0.003,-0.003,0.000,0.000,0.002,0.000,0.000,0.001,0.000
5.42,-0.003,-0.003,-0.010,0.001,0.002,0.000,0.000,0.001,0.000
5.44,0.007,0.007,-0.010,0.001,0.002,0.000,0.000,0.001,0.000
5.46,-0.002,0.015,0.000,0.001,0.002,-0.000,0.000,0.001,0.000
5.48,-0.002,-0.014,-0.020,0.001,0.002,-0.000,0.000,0.001,0.000
5.50,0.007,-0.004,-0.020,0.001,0.002,-0.000,0.000,0.001,0.000
5.52,-0.003,0.005,-0.010,0.001,0.002,-0.001,0.000,0.002,0.000
5.54,-0.003,0.005,0.000,0.001,0.002,-0.001,0.000,0.002,0.000
5.56,0.006,-0.013,-0.010,0.001,0.002,-0.001,0.000,0.002,0.000
5.58,0.006,-0.003,0.010,0.001,0.002,-0.001,0.000,0.002,0.000
5.60,-0.003,-0.003,0.000,0.001,0.002,-0.001,0.000,0.002,0.000
5.62,-0.003,-0.012,-0.010,0.001,0.002,-0.002,0.000,0.002,0.000
5.64,0.007,-0.002,-0.010,0.001,0.002,-0.002,0.000,0.002,0.000
5.66,-0.002,-0.002,0.010,0.001,0.002,-0.002,0.000,0.002,-0.000
5.68,-0.002,0.008,0.010,0.001,0.002,-0.002,0.000,0.002,-0.000
5.70,0.006,-0.001,-0.010,0.001,0.002,-0.002,0.000,0.002,-0.000
5.72,-0.003,-0.001,-0.010,0.001,0.002,-0.002,0.000,0.002,-0.000
5.74,0.007,0.018,0.000,0.001,0.002,-0.002,0.000,0.002,-0.000
5.76,-0.003,0.017,0.000,0.001,0.002,-0.002,0.001,0.002,-0.000
5.78,-0.003,-0.003,-0.010,0.001,0.002,-0.003,0.001,0.002,-0.000
5.80,-0.002,-0.003,-0.010,0.001,0.002,-0.003,0.001,0.002,-0.000
5.82,-0.002,0.006,0.010,0.001,0.002,-0.003,0.001,0.002,-0.000
5.84,0.007,0.006,-0.010,0.001,0.002,-0.003,0.001,0.002,-0.001
5.86,-0.002,-0.003,-0.010,0.001,0.002,-0.003,0.001,0.002,-0.001
5.88,0.008,-0.003,-0.010,0.001,0.002,-0.003,0.001,0.002,-0.001
5.90,-0.003,0.006,-0.010,0.001,0.002,-0.003,0.001,0.003,-0.001
5.92,-0.002,-0.003,-0.010,0.001,0.002,-0.003,0.001,0.003,-0.001
5.94,-0.002,-0.003,0.010,0.001,0.002,-0.003,0.001,0.003,-0.001
5.96,-0.002,0.006,0.000,0.001,0.002,-0.004,0.001,0.003,-0.001
5.98,-0.002,0.006,0.000,0.001,0.003,-0.004,0.001,0.003,-0.001
6.00,-0.003,-0.013,-0.010,0.001,0.003,-0.004,0.001,0.003,-0.001
6.02,-0.003,-0.003,-0.010,0.001,0.003,-0.004,0.001,0.003,-0.001
6.04,-0.003,0.007,0.010,0.001,0.003,-0.004,0.001,0.003,-0.001
6.06,-0.002,-0.003,-0.010,0.001,0.003,-0.004,0.001,0.003,-0.001
6.08,0.007,-0.022,-0.010,0.001,0.003,-0.004,0.001,0.003,-0.002
6.10,-0.003,0.017,0.010,0.001,0.003,-0.004,0.001,0.003,-0.002
6.12,-0.003,0.006,0.000,0.001,0.003,-0.004,0.001,0.003,-0.002
6.14,-0.003,-0.003,-0.010,0.001,0.003,-0.004,0.001,0.003,-0.002
6.16,-0.003,-0.003,0.000,0.001,0.003,-0.004,0.001,0.003,-0.002
6.18,-0.003,-0.003,-0.010,0.001,0.003,-0.004,0.001,0.003,-0.002
6.20,-0.003,0.006,0.010,0.001,0.003,-0.005,0.001,0.003,-0.002
6.22,-0.003,-0.003,0.010,0.001,0.003,-0.005,0.001,0.003,-0.002
6.24,0.007,-0.013,-0.010,0.001,0.003,-0.005,0.001,0.004,-0.002
6.26,-0.003,-0.003,0.000,0.001,0.003,-0.005,0.001,0.004,-0.003
6.28,0.007,-0.003,0.010,0.001,0.003,-0.005,0.001,0.004,-0.003
6.30,-0.002,-0.003,0.000,0.001,0.002,-0.005,0.001,0.004,-0.003
6.32,-0.002,-0.012,-0.010,0.001,0.002,-0.005,0.001,0.004,-0.003
6.34,-0.002,-0.002,0.000,0.001,0.002,-0.005,0.001,0.004,-0.003
6.36,-0.002,-0.002,-0.010,0.001,0.002,-0.005,0.001,0.004,-0.003
6.38,-0.002,-0.002,0.000,0.001,0.002,-0.005,0.001,0.004,-0.003
6.40,-0.002,-0.002,-0.010,0.001,0.002,-0.005,0.001,0.004,-0.003
6.42,-0.002,0.007,0.000,0.001,0.002,-0.005,0.001,0.004,-0.003
6.44,-0.002,-0.012,-0.010,0.001,0.002,-0.005,0.001,0.004,-0.004
6.46,-0.002,-0.020,-0.020,0.001,0.002,-0.005,0.001,0.004,-0.004
6.48,-0.002,0.019,-0.010,0.001,0.002,-0.005,0.001,0.004,-0.004
6.50,-0.002,-0.002,0.010,0.001,0.002,-0.005,0.002,0.004,-0.004
6.52,-0.001,-0.002,-0.020,0.001,0.002,-0.005,0.002,0.004,-0.004
6.54,0.008,-0.002,-0.010,0.001,0.002,-0.005,0.002,0.004,-0.004
6.56,0.008,0.007,0.000,0.001,0.002,-0.006,0.002,0.004,-0.004
6.58,-0.002,-0.012,0.000,0.001,0.002,-0.006,0.002,0.004,-0.005
6.60,-0.002,-0.012,0.000,0.001,0.002,-0.006,0.002,0.005,-0.005
6.62,0.007,0.007,0.000,0.001,0.002,-0.006,0.002,0.005,-0.005
6.64,-0.003,0.007,0.000,0.001,0.002,-0.006,0.002,0.005,-0.005
6.66,-0.002,0.007,-0.010,0.001,0.002,-0.006,0.002,0.005,-0.005
6.68,-0.002,-0.003,-0.010,0.001,0.002,-0.006,0.002,0.005,-0.005
6.70,-0.002,0.007,0.000,0.001,0.002,-0.006,0.002,0.005,-0.005
6.72,0.007,0.015,0.010,0.001,0.002,-0.006,0.002,0.005,-0.005
6.74,0.007,0.005,0.000,0.001,0.002,-0.007,0.002,0.005,-0.006
6.76,0.006,-0.013,0.000,0.001,0.002,-0.007,0.002,0.005,-0.006
6.78,-0.003,-0.003,0.000,0.001,0.002,-0.007,0.002,0.005,-0.006
6.80,0.006,0.006,0.000,0.001,0.002,-0.007,0.002,0.005,-0.006
6.82,-0.004,-0.021,-0.010,0.001,0.002,-0.007,0.002,0.005,-0.006
6.84,-0.004,0.008,0.010,0.001,0.002,-0.007,0.002,0.005,-0.006
6.86,0.005,0.007,0.000,0.001,0.002,-0.007,0.002,0.005,-0.007
6.88,0.005,-0.002,-0.010,0.001,0.002,-0.007,0.002,0.005,-0.007
6.90,-0.004,-0.003,-0.010,0.001,0.002,-0.007,0.002,0.005,-0.007
6.92,-0.003,-0.012,-0.010,0.001,0.002,-0.007,0.002,0.005,-0.007
6.94,0.006,-0.002,-0.010,0.001,0.002,-0.007,0.002,0.005,-0.007
6.96,-0.003,-0.002,-0.020,0.001,0.002,-0.007,0.002,0.005,-0.007
6.98,-0.003,-0.002,0.000,0.001,0.002,-0.007,0.002,0.006,-0.008
7.00,-0.003,0.008,0.000,0.001,0.002,-0.008,0.002,0.006,-0.008
7.02,-0.003,0.007,0.000,0.001,0.002,-0.008,0.002,0.006,-0.008
7.04,-0.003,-0.002,-0.010,0.001,0.002,-0.008,0.002,0.006,-0.008
7.06,-0.002,-0.011,-0.010,0.001,0.002,-0.008,0.002,0.006,-0.008
7.08,-0.002,-0.001,-0.010,0.001,0.002,-0.008,0.002,0.006,-0.008
7.10,-0.002,-0.003,0.000,0.001,0.002,-0.008,0.002,0.006,-0.009
7.12,-0.002,-0.012,0.010,0.001,0.002,-0.008,0.002,0.006,-0.009
7.14,0.008,0.008,0.000,0.001,0.002,-0.008,0.002,0.006,-0.009
7.16,-0.002,0.007,-0.010,0.001,0.002,-0.008,0.002,0.006,-0.009
7.18,0.008,0.007,-0.010,0.001,0.002,-0.008,0.003,0.006,-0.009
7.20,0.008,-0.003,0.000,0.001,0.003,-0.008,0.003,0.006,-0.010
7.22,0.007,-0.012,0.020,0.001,0.003,-0.009,0.003,0.006,-0.010
7.24,-0.002,0.018,0.010,0.001,0.003,-0.009,0.003,0.006,-0.010
7.26,-0.002,-0.002,0.010,0.001,0.003,-0.009,0.003,0.006,-0.010
7.28,-0.002,-0.002,0.010,0.001,0.003,-0.009,0.003,0.006,-0.010
7.30,-0.002,-0.002,0.010,0.001,0.003,-0.008,0.003,0.007,-0.011
7.32,0.007,0.007,0.020,0.001,0.003,-0.008,0.003,0.007,-0.011
7.34,-0.002,-0.012,0.010,0.001,0.003,-0.008,0.003,0.007,-0.011
7.36,-0.002,-0.011,0.010,0.001,0.003,-0.008,0.003,0.007,-0.011
7.38,-0.002,0.008,0.020,0.001,0.003,-0.008,0.003,0.007,-0.012
7.40,-0.002,-0.002,0.000,0.001,0.003,-0.008,0.003,0.007,-0.012
7.42,-0.002,-0.002,0.020,0.001,0.003,-0.008,0.003,0.007,-0.012
7.44,0.008,-0.002,0.000,0.001,0.003,-0.007,0.003,0.007,-0.012
7.46,-0.002,0.007,0.029,0.001,0.003,-0.007,0.003,0.007,-0.012
7.48,-0.002,-0.011,0.020,0.001,0.003,-0.007,0.003,0.007,-0.012
7.50,-0.002,-0.001,0.010,0.001,0.003,-0.007,0.003,0.007,-0.013
7.52,0.007,-0.001,0.029,0.001,0.003,-0.006,0.003,0.007,-0.013
7.54,0.007,0.008,0.029,0.001,0.003,-0.006,0.003,0.007,-0.013
7.56,0.018,-0.002,0.029,0.002,0.003,-0.005,0.003,0.007,-0.013
7.58,0.007,-0.011,0.020,0.002,0.003,-0.005,0.003,0.007,-0.013
7.60,-0.003,0.019,0.039,0.002,0.003,-0.005,0.003,0.008,-0.013
7.62,-0.002,0.017,0.039,0.002,0.003,-0.004,0.003,0.008,-0.013
7.64,-0.002,-0.012,0.020,0.002,0.003,-0.004,0.003,0.008,-0.013
7.66,-0.003,0.007,0.039,0.002,0.003,-0.003,0.003,0.008,-0.014
7.68,-0.003,0.007,0.039,0.002,0.003,-0.003,0.003,0.008,-0.014
7.70,-0.003,0.007,0.039,0.002,0.003,-0.002,0.003,0.008,-0.014
7.72,0.006,0.006,0.039,0.002,0.003,-0.001,0.003,0.008,-0.014
7.74,-0.003,-0.033,0.029,0.002,0.003,-0.001,0.004,0.008,-0.014
7.76,0.006,0.015,0.049,0.002,0.003,-0.000,0.004,0.008,-0.014
7.78,-0.003,-0.004,0.049,0.002,0.003,0.001,0.004,0.008,-0.014
7.80,0.016,0.005,0.049,0.002,0.003,0.002,0.004,0.008,-0.014
7.82,-0.003,0.005,0.049,0.002,0.003,0.002,0.004,0.008,-0.014
7.84,-0.003,0.005,0.049,0.002,0.004,0.003,0.004,0.008,-0.014
7.86,0.015,0.004,0.049,0.002,0.004,0.004,0.004,0.008,-0.014
7.88,0.005,-0.025,0.049,0.002,0.004,0.005,0.004,0.009,-0.014
7.90,-0.004,0.004,0.069,0.002,0.004,0.006,0.004,0.009,-0.013
7.92,0.005,0.013,0.059,0.002,0.004,0.007,0.004,0.009,-0.013
7.94,-0.004,0.003,0.059,0.002,0.004,0.008,0.004,0.009,-0.013
7.96,-0.004,-0.006,0.029,0.002,0.004,0.009,0.004,0.009,-0.013
7.98,0.006,0.003,0.039,0.002,0.004,0.010,0.004,0.009,-0.013
8.00,0.005,0.002,0.049,0.003,0.004,0.012,0.004,0.009,-0.012
8.02,0.014,-0.016,0.039,0.003,0.004,0.013,0.004,0.009,-0.012
8.04,-0.006,-0.006,0.000,0.003,0.004,0.013,0.004,0.009,-0.012
8.06,-0.006,0.003,0.000,0.003,0.004,0.014,0.004,0.009,-0.011
8.08,0.004,0.003,0.010,0.003,0.004,0.015,0.004,0.009,-0.011
8.10,-0.005,-0.006,-0.010,0.003,0.004,0.016,0.005,0.010,-0.011
8.12,-0.005,0.004,0.010,0.003,0.004,0.017,0.005,0.010,-0.010
8.14,-0.005,0.013,0.000,0.003,0.004,0.017,0.005,0.010,-0.010
8.16,-0.004,0.003,-0.010,0.003,0.004,0.017,0.005,0.010,-0.010
8.18,0.005,-0.016,-0.010,0.003,0.004,0.018,0.005,0.010,-0.009
8.20,0.006,0.002,0.000,0.003,0.004,0.018,0.005,0.010,-0.008
8.22,0.005,0.002,0.000,0.003,0.004,0.019,0.005,0.010,-0.008
8.24,-0.004,-0.018,-0.020,0.003,0.004,0.019,0.005,0.010,-0.008
8.26,-0.004,-0.016,0.000,0.003,0.004,0.019,0.005,0.010,-0.007
8.28,-0.004,0.003,0.000,0.003,0.004,0.019,0.005,0.010,-0.007
8.30,0.005,0.003,-0.010,0.003,0.004,0.019,0.005,0.011,-0.007
8.32,0.005,-0.006,0.000,0.003,0.004,0.019,0.005,0.011,-0.006
8.34,-0.005,0.004,-0.010,0.003,0.004,0.019,0.005,0.011,-0.005
8.36,0.004,0.012,-0.020,0.003,0.004,0.019,0.005,0.011,-0.005
8.38,-0.005,0.002,-0.020,0.003,0.004,0.019,0.005,0.011,-0.005
8.40,-0.005,-0.015,-0.010,0.003,0.004,0.019,0.006,0.011,-0.004
8.42,0.005,-0.006,-0.020,0.003,0.004,0.019,0.006,0.011,-0.004
8.44,0.005,-0.007,-0.010,0.003,0.004,0.019,0.006,0.011,-0.003
8.46,-0.004,-0.006,-0.020,0.003,0.004,0.019,0.006,0.011,-0.003
8.48,-0.004,0.013,-0.020,0.003,0.004,0.019,0.006,0.011,-0.002
8.50,-0.004,-0.006,-0.010,0.003,0.004,0.019,0.006,0.011,-0.002
8.52,0.006,0.004,-0.020,0.003,0.004,0.018,0.006,0.012,-0.002
8.54,-0.003,-0.005,-0.020,0.003,0.004,0.018,0.006,0.012,-0.001
8.56,0.015,0.004,-0.020,0.003,0.004,0.018,0.006,0.012,-0.000
8.58,-0.005,0.014,-0.020,0.003,0.003,0.018,0.006,0.012,-0.000
8.60,-0.004,-0.014,-0.010,0.003,0.003,0.017,0.006,0.012,0.000
8.62,0.005,-0.004,-0.020,0.003,0.003,0.017,0.006,0.012,0.001
8.64,-0.004,-0.004,-0.029,0.002,0.003,0.017,0.006,0.012,0.001
8.66,0.006,0.006,-0.020,0.002,0.003,0.016,0.006,0.012,0.001
8.68,0.006,-0.015,-0.029,0.002,0.003,0.016,0.006,0.012,0.002
8.70,-0.003,-0.005,-0.029,0.003,0.003,0.015,0.006,0.012,0.002
8.72,0.006,0.015,-0.029,0.003,0.003,0.015,0.006,0.012,0.002
8.74,-0.003,-0.004,-0.029,0.003,0.003,0.015,0.007,0.012,0.003
8.76,0.006,-0.004,-0.029,0.003,0.003,0.014,0.007,0.012,0.003
8.78,0.006,-0.004,-0.029,0.003,0.003,0.014,0.007,0.013,0.003
8.80,0.005,-0.004,-0.020,0.003,0.003,0.013,0.007,0.013,0.004
8.82,0.005,-0.004,-0.020,0.003,0.003,0.012,0.007,0.013,0.004
8.84,-0.004,-0.012,-0.039,0.003,0.003,0.012,0.007,0.013,0.004
8.86,0.006,0.007,-0.020,0.003,0.003,0.012,0.007,0.013,0.005
8.88,-0.004,-0.002,-0.029,0.003,0.003,0.011,0.007,0.013,0.005
8.90,0.006,-0.002,0.010,0.003,0.003,0.010,0.007,0.013,0.005
8.92,0.006,-0.012,-0.010,0.003,0.003,0.010,0.007,0.013,0.005
8.94,-0.004,-0.002,0.000,0.003,0.003,0.010,0.007,0.013,0.006
8.96,0.006,0.018,0.020,0.003,0.003,0.009,0.007,0.013,0.006
8.98,-0.003,0.007,0.000,0.003,0.003,0.009,0.007,0.013,0.006
9.00,0.006,-0.002,-0.010,0.003,0.003,0.009,0.007,0.013,0.006
9.02,-0.004,-0.002,0.000,0.003,0.003,0.008,0.007,0.013,0.007
9.04,-0.003,0.016,0.010,0.003,0.003,0.008,0.008,0.013,0.007
9.06,-0.003,0.006,-0.010,0.003,0.003,0.008,0.008,0.013,0.007
9.08,0.006,-0.012,-0.010,0.003,0.003,0.008,0.008,0.014,0.007
9.10,-0.004,-0.003,0.000,0.003,0.003,0.008,0.008,0.014,0.007
9.12,0.005,-0.003,-0.010,0.003,0.003,0.007,0.008,0.014,0.008
9.14,0.005,-0.003,-0.010,0.003,0.003,0.007,0.008,0.014,0.008
9.16,0.014,-0.023,-0.010,0.003,0.003,0.007,0.008,0.014,0.008
9.18,0.004,0.006,0.000,0.003,0.003,0.007,0.008,0.014,0.008
9.20,0.004,-0.003,0.000,0.003,0.003,0.007,0.008,0.014,0.008
9.22,-0.005,-0.012,-0.010,0.003,0.003,0.007,0.008,0.014,0.008
9.24,0.004,-0.002,-0.010,0.003,0.003,0.006,0.008,0.014,0.008
9.26,0.004,0.017,0.000,0.003,0.002,0.006,0.008,0.014,0.009
9.28,-0.005,0.007,0.000,0.004,0.002,0.006,0.008,0.014,0.009
9.30,-0.005,-0.013,-0.010,0.004,0.002,0.006,0.008,0.014,0.009
9.32,0.004,-0.012,-0.010,0.004,0.002,0.006,0.009,0.014,0.009
9.34,0.004,-0.002,-0.010,0.004,0.002,0.006,0.009,0.014,0.009
9.36,-0.005,0.007,0.000,0.004,0.002,0.006,0.009,0.014,0.009
9.38,-0.004,-0.002,-0.010,0.004,0.002,0.005,0.009,0.014,0.009
9.40,0.005,-0.002,0.000,0.004,0.002,0.005,0.009,0.015,0.010
9.42,0.005,0.007,0.000,0.004,0.002,0.005,0.009,0.015,0.010
9.44,0.005,0.007,-0.020,0.004,0.002,0.005,0.009,0.015,0.010
9.46,-0.004,0.008,0.000,0.004,0.002,0.005,0.009,0.015,0.010
9.48,-0.004,0.016,0.000,0.004,0.002,0.005,0.009,0.015,0.010
9.50,0.006,-0.003,-0.010,0.004,0.002,0.005,0.009,0.015,0.010
9.52,-0.004,-0.003,0.000,0.004,0.002,0.004,0.009,0.015,0.010
9.54,-0.004,-0.003,0.000,0.004,0.002,0.004,0.010,0.015,0.010
9.56,-0.003,-0.003,0.000,0.004,0.002,0.004,0.010,0.015,0.010
9.58,-0.003,0.006,-0.010,0.004,0.002,0.004,0.010,0.015,0.011
9.60,-0.003,-0.013,-0.010,0.004,0.002,0.004,0.010,0.015,0.011
9.62,0.006,-0.012,0.010,0.004,0.002,0.004,0.010,0.015,0.011
9.64,0.006,0.007,-0.010,0.004,0.002,0.004,0.010,0.015,0.011
9.66,0.005,0.007,0.000,0.004,0.002,0.004,0.010,0.015,0.011
9.68,-0.004,0.006,-0.010,0.004,0.002,0.004,0.010,0.015,0.011
9.70,-0.004,0.006,0.000,0.004,0.002,0.004,0.010,0.015,0.011
9.72,0.005,0.006,-0.010,0.004,0.003,0.004,0.010,0.015,0.011
9.74,-0.004,-0.004,0.000,0.004,0.003,0.003,0.010,0.015,0.011
9.76,0.005,0.005,0.000,0.004,0.003,0.003,0.011,0.016,0.011
9.78,-0.005,-0.014,-0.010,0.004,0.003,0.003,0.011,0.016,0.011
9.80,-0.005,0.005,-0.010,0.004,0.003,0.003,0.011,0.016,0.011
9.82,0.004,0.004,0.000,0.004,0.003,0.003,0.011,0.016,0.012
9.84,-0.006,-0.005,0.000,0.004,0.003,0.003,0.011,0.016,0.012
9.86,-0.005,0.004,-0.020,0.004,0.003,0.003,0.011,0.016,0.012
9.88,0.004,-0.006,0.000,0.004,0.003,0.003,0.011,0.016,0.012
9.90,0.004,0.004,0.010,0.004,0.003,0.003,0.011,0.016,0.012
9.92,0.004,0.003,0.010,0.004,0.003,0.002,0.011,0.016,0.012
9.94,-0.006,0.003,0.000,0.004,0.003,0.002,0.011,0.016,0.012
9.96,-0.005,0.003,-0.010,0.004,0.003,0.002,0.011,0.016,0.012
9.98,-0.005,0.003,-0.010,0.004,0.003,0.002,0.012,0.016,0.012
10.00,-0.005,0.003,-0.020,0.004,0.003,0.002,0.012,0.016,0.012
10.02,-0.005,-0.017,-0.010,0.004,0.003,0.002,0.012,0.016,0.012
10.04,0.004,0.023,0.010,0.004,0.003,0.002,0.012,0.016,0.012
10.06,0.004,-0.006,0.000,0.004,0.003,0.002,0.012,0.017,0.012
10.08,-0.006,-0.006,-0.010,0.004,0.003,0.002,0.012,0.017,0.012
10.10,-0.005,0.004,-0.010,0.004,0.003,0.002,0.012,0.017,0.012
10.12,0.004,0.004,-0.010,0.004,0.003,0.002,0.012,0.017,0.012
10.14,-0.005,-0.007,0.000,0.004,0.003,0.001,0.012,0.017,0.012
10.16,-0.004,-0.016,0.000,0.004,0.003,0.001,0.012,0.017,0.012
10.18,-0.004,0.004,-0.010,0.004,0.003,0.001,0.012,0.017,0.012
10.20,0.005,0.012,-0.010,0.004,0.003,0.001,0.013,0.017,0.012
10.22,0.005,-0.007,-0.020,0.004,0.003,0.001,0.013,0.017,0.012
10.24,-0.004,-0.006,-0.010,0.004,0.003,0.001,0.013,0.017,0.013
10.26,-0.004,0.003,0.000,0.004,0.003,0.000,0.013,0.017,0.013
10.28,0.006,-0.007,-0.010,0.004,0.003,0.000,0.013,0.017,0.013
10.30,-0.004,-0.006,0.010,0.004,0.003,0.000,0.013,0.017,0.013
10.32,-0.004,0.004,0.000,0.004,0.003,0.000,0.013,0.017,0.013
10.34,-0.003,0.021,0.000,0.004,0.003,0.000,0.013,0.018,0.013
10.36,0.006,0.002,-0.010,0.004,0.003,-0.000,0.013,0.018,0.013
10.38,0.007,-0.006,-0.010,0.003,0.003,-0.000,0.013,0.018,0.013
10.40,0.006,0.004,0.000,0.003,0.003,-0.000,0.013,0.018,0.013
10.42,0.006,0.004,0.000,0.003,0.003,-0.001,0.013,0.018,0.013
10.44,-0.003,-0.006,-0.020,0.004,0.003,-0.001,0.014,0.018,0.013
10.46,0.015,-0.014,-0.010,0.004,0.003,-0.001,0.014,0.018,0.012
10.48,-0.005,0.015,-0.010,0.004,0.003,-0.001,0.014,0.018,0.012
10.50,0.004,-0.004,0.010,0.004,0.003,-0.001,0.014,0.018,0.012
10.52,0.014,-0.014,0.000,0.004,0.003,-0.001,0.014,0.018,0.012
10.54,-0.005,0.006,0.000,0.004,0.003,-0.002,0.014,0.018,0.012
10.56,-0.004,0.006,0.010,0.004,0.003,-0.002,0.014,0.018,0.012
10.58,-0.004,-0.004,0.000,0.004,0.003,-0.002,0.014,0.018,0.012
10.60,0.005,-0.013,0.000,0.004,0.003,-0.002,0.014,0.019,0.012
10.62,0.005,0.007,0.010,0.004,0.003,-0.002,0.014,0.019,0.012
10.64,0.005,0.015,0.010,0.004,0.002,-0.002,0.014,0.019,0.012
10.66,-0.005,-0.004,0.010,0.004,0.002,-0.002,0.015,0.019,0.012
10.68,-0.005,0.016,0.010,0.004,0.002,-0.002,0.015,0.019,0.012
10.70,0.005,0.005,0.010,0.004,0.002,-0.002,0.015,0.019,0.012
10.72,-0.005,-0.004,0.020,0.004,0.002,-0.002,0.015,0.019,0.012
10.74,0.004,-0.013,0.010,0.004,0.002,-0.002,0.015,0.019,0.012
10.76,0.004,0.006,0.020,0.004,0.002,-0.001,0.015,0.019,0.012
10.78,-0.006,0.006,0.020,0.004,0.002,-0.001,0.015,0.019,0.012
10.80,-0.005,-0.003,0.020,0.004,0.002,-0.001,0.015,0.019,0.012
10.82,0.004,-0.003,0.049,0.004,0.002,-0.001,0.015,0.019,0.012
10.84,0.004,-0.003,0.049,0.004,0.002,-0.000,0.015,0.019,0.012
10.86,0.004,-0.012,0.020,0.004,0.002,0.000,0.016,0.019,0.012
10.88,0.004,-0.002,0.020,0.004,0.002,0.001,0.016,0.019,0.012
10.90,0.012,0.007,0.020,0.004,0.002,0.001,0.016,0.019,0.012
10.92,-0.007,-0.003,0.020,0.004,0.002,0.001,0.016,0.019,0.012
10.94,-0.006,0.006,0.039,0.004,0.002,0.002,0.016,0.019,0.012
10.96,-0.006,0.006,0.039,0.004,0.002,0.002,0.016,0.019,0.012
10.98,0.004,-0.004,0.020,0.004,0.002,0.003,0.016,0.020,0.012
11.00,-0.005,-0.012,0.039,0.004,0.002,0.004,0.016,0.020,0.012
11.02,0.004,0.017,0.029,0.004,0.002,0.004,0.016,0.020,0.012
11.04,0.004,0.024,0.029,0.004,0.002,0.005,0.016,0.020,0.012
11.06,0.004,-0.005,0.029,0.004,0.002,0.005,0.016,0.020,0.012
11.08,0.004,0.005,0.020,0.004,0.002,0.006,0.017,0.020,0.013
11.10,-0.005,0.005,0.029,0.004,0.002,0.007,0.017,0.020,0.013
11.12,-0.005,0.005,0.049,0.004,0.002,0.007,0.017,0.020,0.013
11.14,-0.005,-0.004,0.039,0.004,0.002,0.008,0.017,0.020,0.013
11.16,0.014,-0.004,0.020,0.004,0.002,0.008,0.017,0.020,0.013
11.18,0.022,0.005,0.030,0.004,0.002,0.009,0.017,0.020,0.013
11.20,-0.006,-0.004,0.030,0.004,0.003,0.010,0.017,0.020,0.014
11.22,-0.006,0.005,0.020,0.004,0.003,0.011,0.017,0.020,0.014
11.24,-0.006,-0.013,0.029,0.004,0.003,0.011,0.017,0.020,0.014
11.26,-0.006,0.016,0.029,0.004,0.003,0.012,0.017,0.020,0.014
11.28,-0.005,0.015,0.029,0.004,0.003,0.012,0.018,0.020,0.015
11.30,0.004,-0.013,0.020,0.004,0.003,0.013,0.018,0.020,0.015
11.32,0.014,0.026,0.029,0.004,0.003,0.014,0.018,0.021,0.015
11.34,0.004,-0.003,0.029,0.005,0.003,0.015,0.018,0.021,0.016
11.36,-0.006,-0.003,0.039,0.005,0.003,0.015,0.018,0.021,0.016
11.38,-0.005,-0.003,0.039,0.005,0.003,0.016,0.018,0.021,0.016
11.40,-0.005,0.007,0.020,0.005,0.003,0.016,0.018,0.021,0.017
11.42,-0.005,0.006,0.000,0.005,0.003,0.017,0.018,0.021,0.017
11.44,0.004,-0.012,0.000,0.005,0.003,0.018,0.018,0.021,0.018
11.46,0.014,0.007,0.000,0.005,0.003,0.018,0.019,0.021,0.018
11.48,0.013,0.016,0.010,0.005,0.004,0.019,0.019,0.021,0.018
11.50,-0.007,0.006,0.000,0.005,0.004,0.019,0.019,0.021,0.019
11.52,-0.006,-0.003,0.000,0.005,0.004,0.019,0.019,0.021,0.019
11.54,0.003,0.006,0.000,0.005,0.004,0.020,0.019,0.021,0.020
11.56,0.013,0.006,0.010,0.005,0.004,0.020,0.019,0.021,0.020
11.58,0.021,0.005,-0.010,0.005,0.004,0.020,0.019,0.022,0.021
11.60,0.011,-0.004,0.000,0.005,0.004,0.021,0.019,0.022,0.021
11.62,-0.008,0.005,0.000,0.005,0.004,0.021,0.019,0.022,0.022
11.64,-0.007,0.004,0.000,0.005,0.004,0.021,0.020,0.022,0.022
11.66,-0.007,0.004,0.010,0.005,0.005,0.021,0.020,0.022,0.023
11.68,-0.006,0.013,0.000,0.005,0.005,0.021,0.020,0.022,0.023
11.70,0.003,0.012,0.010,0.005,0.005,0.022,0.020,0.022,0.024
11.72,0.013,-0.008,0.000,0.005,0.005,0.022,0.020,0.022,0.025
11.74,0.003,-0.016,0.000,0.005,0.005,0.022,0.020,0.022,0.025
11.76,-0.007,0.003,0.010,0.005,0.005,0.022,0.020,0.023,0.025
11.78,-0.006,0.003,0.010,0.005,0.005,0.022,0.020,0.023,0.026
11.80,-0.006,-0.006,0.010,0.005,0.005,0.022,0.021,0.023,0.027
11.82,0.004,-0.006,0.000,0.005,0.005,0.023,0.021,0.023,0.027
11.84,0.003,0.012,0.000,0.005,0.005,0.023,0.021,0.023,0.028
11.86,0.013,0.003,0.010,0.005,0.005,0.023,0.021,0.023,0.028
11.88,0.012,0.002,0.000,0.005,0.005,0.023,0.021,0.023,0.029
11.90,-0.007,-0.007,0.010,0.005,0.005,0.023,0.021,0.023,0.029
11.92,-0.007,0.002,0.000,0.005,0.005,0.023,0.021,0.024,0.030
11.94,-0.006,0.002,0.020,0.005,0.005,0.023,0.021,0.024,0.030
11.96,0.004,0.022,0.010,0.005,0.006,0.023,0.022,0.024,0.031
11.98,0.012,-0.007,0.000,0.005,0.006,0.024,0.022,0.024,0.031
12.00,0.002,0.003,-0.010,0.005,0.006,0.024,0.022,0.024,0.032
12.02,0.002,0.002,0.000,0.005,0.006,0.024,0.022,0.024,0.033
12.04,0.002,-0.016,0.020,0.005,0.006,0.024,0.022,0.024,0.033
12.06,0.002,0.004,0.020,0.005,0.006,0.024,0.022,0.025,0.034
12.08,-0.007,0.013,0.029,0.005,0.006,0.024,0.022,0.025,0.034
12.10,-0.007,0.013,0.010,0.005,0.006,0.024,0.022,0.025,0.035
12.12,-0.006,-0.006,-0.010,0.005,0.006,0.025,0.022,0.025,0.035
12.14,0.003,0.003,0.000,0.005,0.006,0.025,0.023,0.025,0.036
12.16,0.013,0.013,0.010,0.005,0.006,0.025,0.023,0.025,0.037
12.18,0.012,0.012,0.010,0.005,0.006,0.025,0.023,0.025,0.037
12.20,0.002,-0.018,0.000,0.005,0.006,0.025,0.023,0.025,0.038
12.22,-0.007,-0.007,-0.010,0.005,0.006,0.025,0.023,0.026,0.038
12.24,-0.006,0.002,0.000,0.005,0.006,0.026,0.023,0.026,0.039
12.26,-0.006,-0.017,0.000,0.005,0.006,0.026,0.023,0.026,0.040
12.28,-0.006,0.002,0.000,0.005,0.006,0.026,0.023,0.026,0.040
12.30,0.004,0.012,0.000,0.005,0.006,0.026,0.024,0.026,0.041
12.32,0.012,0.002,0.000,0.005,0.006,0.026,0.024,0.026,0.041
12.34,0.022,-0.018,-0.010,0.005,0.006,0.026,0.024,0.026,0.042
12.36,-0.008,0.003,0.010,0.005,0.006,0.026,0.024,0.027,0.043
12.38,-0.007,0.020,0.030,0.005,0.006,0.026,0.024,0.027,0.043
12.40,-0.007,0.011,0.020,0.005,0.006,0.026,0.024,0.027,0.044
12.42,0.002,-0.017,0.020,0.005,0.006,0.026,0.024,0.027,0.044
12.44,0.012,-0.027,-0.010,0.005,0.006,0.026,0.024,0.027,0.045
12.46,0.010,0.002,0.010,0.006,0.006,0.027,0.025,0.027,0.046
12.48,0.000,-0.007,-0.010,0.006,0.006,0.027,0.025,0.028,0.047
12.50,-0.019,0.003,-0.010,0.006,0.006,0.027,0.025,0.028,0.047
12.52,-0.018,0.020,0.000,0.006,0.006,0.027,0.025,0.028,0.048
12.54,-0.018,0.020,0.020,0.006,0.006,0.027,0.025,0.028,0.048
12.56,0.022,-0.009,-0.010,0.006,0.006,0.027,0.025,0.028,0.049
12.58,0.020,-0.017,-0.010,0.006,0.006,0.027,0.025,0.028,0.050
12.60,0.010,-0.007,-0.029,0.006,0.006,0.027,0.026,0.028,0.050
12.62,0.000,-0.007,-0.010,0.006,0.006,0.027,0.026,0.028,0.051
12.64,-0.009,0.003,0.010,0.006,0.006,0.027,0.026,0.029,0.051
12.66,-0.026,0.021,0.000,0.006,0.006,0.027,0.026,0.029,0.052
12.68,-0.006,-0.017,0.000,0.006,0.006,0.027,0.026,0.029,0.053
12.70,-0.006,-0.017,-0.010,0.006,0.006,0.027,0.026,0.029,0.054
12.72,0.012,0.020,0.000,0.006,0.006,0.027,0.026,0.029,0.054
12.74,0.022,-0.009,-0.019,0.006,0.006,0.027,0.026,0.029,0.055
12.76,0.011,-0.017,-0.019,0.006,0.006,0.027,0.027,0.029,0.055
12.78,0.001,-0.007,0.000,0.006,0.006,0.027,0.027,0.030,0.056
12.80,-0.026,0.012,0.000,0.006,0.006,0.027,0.027,0.030,0.057
12.82,-0.015,0.002,0.010,0.006,0.006,0.027,0.027,0.030,0.057
12.84,0.004,-0.018,-0.010,0.005,0.006,0.027,0.027,0.030,0.058
12.86,0.022,0.011,-0.019,0.005,0.005,0.026,0.027,0.030,0.058
12.88,0.032,0.011,0.000,0.005,0.005,0.026,0.027,0.030,0.059
12.90,0.002,0.002,-0.010,0.006,0.005,0.026,0.028,0.030,0.060
12.92,-0.007,-0.016,-0.010,0.006,0.005,0.026,0.028,0.030,0.061
12.94,-0.017,0.013,0.000,0.006,0.005,0.026,0.028,0.031,0.061
12.96,-0.006,0.012,0.010,0.006,0.005,0.026,0.028,0.031,0.062
12.98,0.003,0.002,0.000,0.006,0.005,0.026,0.028,0.031,0.062
13.00,0.003,-0.025,-0.010,0.006,0.005,0.026,0.028,0.031,0.063
13.02,0.003,0.004,-0.010,0.006,0.005,0.026,0.028,0.031,0.064
13.04,-0.007,0.004,0.010,0.006,0.005,0.026,0.028,0.031,0.064
13.06,0.002,0.004,-0.010,0.006,0.005,0.026,0.029,0.031,0.065
13.08,-0.017,-0.016,-0.010,0.006,0.005,0.025,0.029,0.031,0.065
13.10,-0.016,0.003,0.000,0.006,0.005,0.025,0.029,0.032,0.066
13.12,-0.006,0.003,0.000,0.006,0.005,0.025,0.029,0.032,0.066
13.14,0.014,0.003,0.000,0.005,0.005,0.025,0.029,0.032,0.067
13.16,0.022,0.003,0.000,0.005,0.005,0.025,0.029,0.032,0.068
13.18,0.012,0.003,0.010,0.006,0.005,0.025,0.029,0.032,0.068
13.20,-0.007,0.003,0.000,0.006,0.005,0.025,0.029,0.032,0.069
13.22,-0.007,-0.007,0.000,0.006,0.005,0.025,0.030,0.032,0.069
13.24,-0.005,0.004,0.000,0.006,0.005,0.025,0.030,0.033,0.070
13.26,0.004,0.004,0.010,0.005,0.005,0.025,0.030,0.033,0.071
13.28,0.014,-0.006,-0.010,0.005,0.005,0.025,0.030,0.033,0.071
13.30,0.013,-0.005,0.000,0.006,0.005,0.025,0.030,0.033,0.072
13.32,0.003,0.004,0.000,0.006,0.005,0.025,0.030,0.033,0.072
13.34,-0.006,0.004,0.000,0.006,0.005,0.025,0.030,0.033,0.073
13.36,-0.006,0.003,0.000,0.006,0.005,0.025,0.031,0.033,0.074
13.38,-0.006,0.003,-0.010,0.006,0.005,0.025,0.031,0.033,0.074
13.40,-0.005,0.012,0.000,0.006,0.005,0.025,0.031,0.033,0.075
13.42,0.004,0.002,-0.010,0.006,0.005,0.025,0.031,0.034,0.075
13.44,0.004,-0.007,0.000,0.006,0.005,0.025,0.031,0.034,0.076
13.46,0.004,0.003,0.000,0.006,0.005,0.025,0.031,0.034,0.077
13.48,-0.006,0.013,0.000,0.006,0.005,0.025,0.031,0.034,0.077
13.50,-0.005,-0.006,0.000,0.006,0.005,0.025,0.031,0.034,0.078
13.52,-0.005,-0.006,0.000,0.006,0.005,0.025,0.032,0.034,0.078
13.54,-0.005,-0.006,0.010,0.006,0.005,0.025,0.032,0.034,0.079
13.56,0.004,-0.005,0.000,0.006,0.005,0.025,0.032,0.035,0.080
13.58,0.004,0.014,-0.010,0.006,0.006,0.025,0.032,0.035,0.080
13.60,-0.005,0.004,0.000,0.006,0.006,0.025,0.032,0.035,0.081
13.62,-0.005,0.014,-0.010,0.006,0.006,0.025,0.032,0.035,0.081
13.64,-0.004,0.013,0.000,0.006,0.006,0.025,0.032,0.035,0.082
13.66,-0.004,0.003,-0.010,0.006,0.006,0.025,0.032,0.035,0.082
13.68,0.015,0.003,-0.010,0.006,0.006,0.025,0.033,0.035,0.083
13.70,0.014,0.003,-0.010,0.006,0.006,0.025,0.033,0.035,0.084
13.72,0.004,0.013,-0.020,0.006,0.006,0.025,0.033,0.036,0.084
13.74,-0.005,-0.006,-0.010,0.006,0.006,0.024,0.033,0.036,0.085
13.76,-0.005,-0.006,-0.010,0.006,0.006,0.024,0.033,0.036,0.085
13.78,-0.005,0.003,-0.010,0.006,0.006,0.024,0.033,0.036,0.086
13.80,-0.004,0.003,-0.020,0.006,0.006,0.024,0.034,0.036,0.087
13.82,0.005,0.003,0.000,0.006,0.006,0.024,0.034,0.036,0.087
13.84,0.014,0.012,0.000,0.006,0.006,0.024,0.034,0.036,0.088
13.86,-0.005,0.002,-0.010,0.006,0.006,0.023,0.034,0.037,0.088
13.88,0.004,-0.007,-0.010,0.006,0.007,0.023,0.034,0.037,0.089
13.90,-0.006,0.003,-0.010,0.006,0.007,0.023,0.034,0.037,0.089
13.92,-0.006,-0.006,0.010,0.006,0.007,0.023,0.034,0.037,0.090
13.94,0.003,0.003,0.000,0.006,0.007,0.023,0.034,0.037,0.090
13.96,-0.006,-0.007,0.000,0.006,0.007,0.023,0.035,0.037,0.091
13.98,0.012,-0.006,0.010,0.006,0.007,0.023,0.035,0.037,0.091
14.00,0.002,0.004,0.010,0.006,0.007,0.023,0.035,0.038,0.092
14.02,-0.008,0.003,0.020,0.006,0.007,0.023,0.035,0.038,0.093
14.04,-0.007,-0.006,0.020,0.006,0.007,0.023,0.035,0.038,0.093
14.06,-0.007,-0.006,0.020,0.006,0.007,0.023,0.035,0.038,0.094
14.08,0.002,0.003,0.020,0.006,0.007,0.023,0.035,0.038,0.094
14.10,0.002,-0.006,0.010,0.006,0.007,0.023,0.036,0.038,0.094
14.12,0.002,-0.006,0.010,0.006,0.007,0.023,0.036,0.039,0.095
14.14,0.002,-0.015,0.000,0.006,0.007,0.023,0.036,0.039,0.096
14.16,0.002,-0.005,0.000,0.006,0.007,0.023,0.036,0.039,0.096
14.18,-0.007,-0.005,0.010,0.006,0.007,0.024,0.036,0.039,0.097
14.20,0.003,0.005,0.010,0.006,0.006,0.024,0.036,0.039,0.097
14.22,-0.006,-0.004,0.010,0.006,0.006,0.024,0.036,0.039,0.098
14.24,0.003,-0.004,0.020,0.006,0.006,0.024,0.037,0.040,0.099
14.26,0.003,-0.004,0.010,0.006,0.006,0.024,0.037,0.040,0.099
14.28,-0.006,0.014,0.010,0.006,0.006,0.024,0.037,0.040,0.100
14.30,-0.006,0.004,0.020,0.006,0.006,0.025,0.037,0.040,0.100
14.32,0.003,-0.005,0.020,0.006,0.006,0.025,0.037,0.040,0.101
14.34,0.003,0.005,0.010,0.006,0.006,0.025,0.037,0.040,0.101
14.36,-0.007,0.005,0.010,0.006,0.006,0.025,0.037,0.040,0.102
14.38,-0.006,0.004,0.010,0.006,0.006,0.026,0.038,0.041,0.103
14.40,0.004,-0.005,0.010,0.006,0.006,0.026,0.038,0.041,0.103
14.42,0.003,0.013,0.020,0.006,0.006,0.026,0.038,0.041,0.104
14.44,-0.006,0.003,0.010,0.006,0.006,0.026,0.038,0.041,0.104
14.46,-0.006,-0.006,0.010,0.006,0.006,0.027,0.038,0.041,0.105
14.48,0.004,-0.006,0.010,0.006,0.006,0.027,0.038,0.041,0.106
14.50,0.004,0.024,0.010,0.006,0.006,0.027,0.038,0.041,0.106
14.52,-0.006,-0.005,0.029,0.006,0.006,0.028,0.039,0.042,0.107
14.54,0.004,-0.015,0.010,0.006,0.006,0.028,0.039,0.042,0.107
14.56,-0.005,0.025,0.010,0.006,0.006,0.028,0.039,0.042,0.109
14.58,-0.005,-0.004,0.010,0.006,0.006,0.029,0.039,0.042,0.109
14.60,-0.005,-0.014,0.000,0.006,0.006,0.029,0.039,0.042,0.110
14.62,-0.004,-0.022,0.000,0.006,0.006,0.029,0.039,0.042,0.110
14.64,-0.004,0.007,0.020,0.006,0.006,0.029,0.039,0.043,0.111
14.66,-0.005,-0.004,0.000,0.006,0.006,0.030,0.040,0.043,0.112
14.68,-0.004,-0.012,0.000,0.005,0.006,0.030,0.040,0.043,0.113
14.70,0.005,0.007,0.010,0.005,0.006,0.030,0.040,0.043,0.113
14.72,-0.004,0.015,0.020,0.005,0.006,0.030,0.040,0.043,0.114
14.74,-0.004,0.006,0.029,0.005,0.006,0.031,0.040,0.043,0.114
14.76,-0.003,-0.013,0.010,0.005,0.006,0.031,0.040,0.044,0.116
14.78,0.006,0.023,0.020,0.005,0.006,0.031,0.040,0.044,0.116
14.80,-0.004,0.004,0.000,0.005,0.006,0.032,0.040,0.044,0.117
14.82,-0.004,-0.005,-0.010,0.005,0.006,0.032,0.040,0.044,0.118
14.84,0.006,-0.015,-0.010,0.005,0.007,0.032,0.041,0.044,0.118
14.86,-0.003,0.013,0.010,0.005,0.007,0.032,0.041,0.044,0.120
14.88,-0.003,-0.006,-0.010,0.005,0.007,0.033,0.041,0.044,0.120
14.90,0.006,-0.026,-0.010,0.005,0.007,0.033,0.041,0.045,0.121
14.92,0.006,0.003,0.000,0.005,0.007,0.033,0.041,0.045,0.121
14.94,0.006,0.023,0.010,0.005,0.007,0.033,0.041,0.045,0.122
14.96,-0.005,-0.028,-0.020,0.005,0.007,0.033,0.041,0.045,0.123
14.98,-0.005,-0.034,-0.010,0.005,0.007,0.033,0.042,0.045,0.124
15.00,0.005,0.014,0.010,0.005,0.007,0.033,0.042,0.045,0.125
15.02,0.005,0.031,0.029,0.005,0.007,0.033,0.042,0.046,0.125
15.04,-0.005,0.002,0.020,0.005,0.007,0.034,0.042,0.046,0.126
15.06,-0.005,-0.025,-0.020,0.005,0.007,0.034,0.042,0.046,0.127
15.08,-0.004,0.022,0.010,0.005,0.007,0.034,0.042,0.046,0.128
15.10,0.005,0.032,0.020,0.005,0.007,0.034,0.042,0.046,0.129
15.12,0.005,-0.016,0.010,0.005,0.007,0.034,0.042,0.046,0.130
15.14,0.005,0.004,0.000,0.005,0.007,0.034,0.042,0.046,0.130
15.16,0.004,0.012,-0.010,0.005,0.007,0.034,0.043,0.047,0.131
15.18,-0.005,0.011,0.010,0.005,0.007,0.034,0.043,0.047,0.132
15.20,0.005,-0.008,0.000,0.005,0.007,0.034,0.043,0.047,0.133
15.22,0.005,-0.008,0.010,0.005,0.007,0.034,0.043,0.047,0.134
15.24,0.014,0.012,0.010,0.005,0.007,0.035,0.043,0.047,0.134
15.26,-0.005,0.020,0.000,0.005,0.007,0.035,0.043,0.047,0.135
15.28,0.005,0.000,0.010,0.005,0.007,0.035,0.043,0.048,0.136
15.30,-0.005,0.000,0.010,0.005,0.007,0.035,0.043,0.048,0.137
15.32,-0.005,0.000,0.020,0.005,0.007,0.035,0.044,0.048,0.138
15.34,0.015,0.010,0.000,0.006,0.007,0.035,0.044,0.048,0.138
15.36,-0.004,-0.009,-0.020,0.006,0.007,0.035,0.044,0.048,0.139
15.38,0.005,0.010,0.010,0.006,0.007,0.035,0.044,0.049,0.141
15.40,-0.005,0.000,0.010,0.006,0.007,0.035,0.044,0.049,0.141
15.42,-0.004,-0.009,0.010,0.006,0.007,0.036,0.044,0.049,0.142
15.44,0.005,0.001,0.000,0.006,0.007,0.036,0.044,0.049,0.143
15.46,-0.004,0.001,0.000,0.006,0.007,0.036,0.044,0.049,0.143
15.48,0.005,0.001,0.000,0.006,0.007,0.036,0.045,0.049,0.145
15.50,0.015,-0.019,0.010,0.006,0.007,0.036,0.045,0.050,0.146
15.52,0.005,-0.017,0.000,0.006,0.007,0.036,0.045,0.050,0.146
15.54,0.005,0.002,0.010,0.006,0.007,0.036,0.045,0.050,0.147
15.56,-0.004,0.002,0.000,0.006,0.007,0.036,0.045,0.050,0.148
15.58,-0.004,-0.007,-0.010,0.006,0.007,0.036,0.045,0.050,0.148
15.60,0.006,0.012,0.010,0.006,0.007,0.036,0.046,0.050,0.150
15.62,0.005,0.011,0.000,0.006,0.007,0.036,0.046,0.051,0.151
15.64,0.005,-0.009,0.000,0.006,0.007,0.037,0.046,0.051,0.151
15.66,0.014,-0.017,0.020,0.006,0.007,0.037,0.046,0.051,0.152
15.68,-0.006,0.012,0.020,0.006,0.007,0.037,0.046,0.051,0.153
15.70,-0.005,-0.007,0.000,0.006,0.007,0.037,0.046,0.051,0.154
15.72,0.004,-0.007,0.010,0.006,0.007,0.037,0.046,0.051,0.155
15.74,-0.006,0.003,0.000,0.006,0.007,0.037,0.047,0.052,0.156
15.76,0.013,0.012,0.010,0.006,0.007,0.037,0.047,0.052,0.157
15.78,0.003,-0.007,0.010,0.007,0.007,0.038,0.047,0.052,0.158
15.80,-0.007,0.012,0.000,0.007,0.007,0.038,0.047,0.052,0.159
15.82,-0.006,0.002,0.020,0.007,0.007,0.038,0.047,0.052,0.160
15.84,-0.006,0.012,0.010,0.007,0.007,0.038,0.047,0.052,0.160
15.86,-0.006,-0.007,0.010,0.007,0.007,0.039,0.048,0.053,0.162
15.88,0.003,0.003,0.010,0.007,0.007,0.039,0.048,0.053,0.163
15.90,0.003,0.022,0.020,0.007,0.007,0.039,0.048,0.053,0.163
15.92,0.003,0.002,0.010,0.007,0.007,0.039,0.048,0.053,0.164
15.94,0.003,-0.007,0.000,0.007,0.007,0.040,0.048,0.053,0.166
15.96,-0.007,-0.007,0.010,0.007,0.007,0.040,0.048,0.054,0.167
15.98,-0.006,0.012,0.010,0.007,0.007,0.040,0.049,0.054,0.167
16.00,-0.006,0.022,0.020,0.007,0.007,0.040,0.049,0.054,0.168
16.02,-0.006,-0.007,0.020,0.007,0.007,0.040,0.049,0.054,0.169
16.04,0.004,0.011,0.020,0.006,0.008,0.041,0.049,0.054,0.171
16.06,-0.006,0.011,0.020,0.006,0.008,0.041,0.049,0.054,0.171
16.08,0.003,-0.016,0.010,0.006,0.008,0.041,0.049,0.055,0.172
16.10,-0.006,-0.006,0.020,0.006,0.008,0.042,0.049,0.055,0.173
16.12,-0.006,0.003,0.020,0.006,0.008,0.042,0.050,0.055,0.174
16.14,0.004,0.022,0.029,0.006,0.008,0.042,0.050,0.055,0.175
16.16,-0.007,-0.016,0.020,0.006,0.008,0.043,0.050,0.055,0.176
16.18,-0.006,-0.006,0.020,0.006,0.008,0.043,0.050,0.056,0.177
16.20,0.003,0.014,0.020,0.006,0.008,0.043,0.050,0.056,0.178
16.22,-0.006,0.013,0.029,0.006,0.008,0.044,0.050,0.056,0.179
16.24,-0.006,-0.007,0.020,0.006,0.008,0.044,0.050,0.056,0.180
16.26,-0.006,-0.016,0.010,0.006,0.008,0.045,0.051,0.056,0.182
16.28,-0.006,0.021,0.010,0.006,0.008,0.045,0.051,0.056,0.183
16.30,0.004,0.011,0.020,0.006,0.008,0.045,0.051,0.057,0.183
16.32,0.004,0.001,0.020,0.006,0.008,0.046,0.051,0.057,0.184
16.34,-0.006,0.011,0.029,0.006,0.008,0.046,0.051,0.057,0.185
16.36,-0.006,-0.009,0.010,0.006,0.008,0.047,0.051,0.057,0.187
16.38,-0.006,-0.018,0.010,0.006,0.008,0.047,0.052,0.057,0.188
16.40,-0.006,-0.008,0.010,0.006,0.008,0.047,0.052,0.058,0.189
16.42,0.004,0.011,0.020,0.006,0.008,0.048,0.052,0.058,0.190
16.44,-0.006,0.021,0.010,0.006,0.008,0.048,0.052,0.058,0.191
16.46,-0.006,-0.009,0.000,0.006,0.009,0.049,0.052,0.058,0.193
16.48,0.004,0.001,0.010,0.006,0.009,0.049,0.052,0.058,0.194
16.50,-0.006,0.011,0.010,0.006,0.009,0.049,0.052,0.059,0.195
16.52,-0.005,0.001,0.010,0.006,0.009,0.049,0.052,0.059,0.196
16.54,-0.005,-0.009,0.000,0.006,0.009,0.050,0.053,0.059,0.197
16.56,-0.005,-0.008,0.000,0.005,0.009,0.050,0.053,0.059,0.198
16.58,0.004,0.001,0.010,0.005,0.009,0.050,0.053,0.060,0.200
16.60,-0.005,-0.008,0.000,0.005,0.009,0.050,0.053,0.060,0.201
16.62,0.004,-0.008,-0.010,0.005,0.009,0.050,0.053,0.060,0.202
16.64,0.004,0.002,0.000,0.005,0.009,0.051,0.053,0.060,0.203
16.66,-0.005,0.011,0.010,0.005,0.009,0.051,0.053,0.060,0.204
16.68,0.004,0.001,0.000,0.005,0.009,0.051,0.053,0.060,0.205
16.70,-0.005,-0.008,0.000,0.005,0.009,0.051,0.054,0.061,0.207
16.72,0.004,0.011,0.000,0.005,0.009,0.051,0.054,0.061,0.208
16.74,-0.005,0.001,0.000,0.005,0.009,0.051,0.054,0.061,0.209
16.76,-0.005,-0.017,0.010,0.005,0.009,0.051,0.054,0.061,0.210
16.78,0.005,-0.007,-0.010,0.005,0.009,0.051,0.054,0.061,0.211
16.80,0.004,0.012,0.000,0.005,0.009,0.052,0.054,0.062,0.213
16.82,0.013,0.002,-0.010,0.005,0.009,0.052,0.054,0.062,0.214
16.84,-0.006,-0.008,0.000,0.005,0.009,0.052,0.054,0.062,0.215
16.86,0.003,0.002,-0.010,0.005,0.009,0.052,0.055,0.062,0.216
16.88,-0.007,0.012,-0.010,0.005,0.009,0.052,0.055,0.062,0.217
16.90,-0.006,-0.007,0.000,0.005,0.009,0.052,0.055,0.063,0.218
16.92,-0.006,0.002,0.000,0.005,0.009,0.052,0.055,0.063,0.220
16.94,0.004,0.012,0.010,0.005,0.009,0.052,0.055,0.063,0.221
16.96,0.004,0.002,0.000,0.005,0.009,0.052,0.055,0.063,0.222
16.98,0.004,-0.008,-0.010,0.005,0.008,0.051,0.055,0.064,0.223
17.00,-0.005,-0.007,-0.010,0.005,0.008,0.051,0.055,0.064,0.224
17.02,0.004,0.003,0.000,0.005,0.008,0.051,0.055,0.064,0.225
17.04,-0.006,0.002,0.010,0.005,0.008,0.051,0.056,0.064,0.227
17.06,0.004,-0.016,-0.010,0.005,0.008,0.051,0.056,0.064,0.228
17.08,0.004,-0.006,0.000,0.005,0.008,0.051,0.056,0.065,0.230
17.10,-0.006,0.012,0.010,0.005,0.008,0.051,0.056,0.065,0.231
17.12,-0.006,0.012,0.000,0.005,0.008,0.051,0.056,0.065,0.232
17.14,0.004,-0.017,-0.010,0.005,0.008,0.051,0.056,0.065,0.234
17.16,-0.005,0.002,0.010,0.005,0.008,0.051,0.056,0.065,0.235
17.18,0.004,0.012,0.010,0.005,0.008,0.051,0.056,0.066,0.236
17.20,-0.005,0.002,0.000,0.005,0.008,0.051,0.057,0.066,0.237
17.22,0.005,-0.017,-0.010,0.005,0.008,0.051,0.057,0.066,0.238
17.24,-0.005,0.002,0.000,0.005,0.008,0.051,0.057,0.066,0.240
17.26,-0.004,0.002,0.010,0.005,0.008,0.051,0.057,0.066,0.241
17.28,0.005,-0.008,-0.010,0.005,0.008,0.051,0.057,0.067,0.242
17.30,0.005,-0.016,-0.010,0.005,0.008,0.051,0.057,0.067,0.243
17.32,-0.005,-0.006,0.000,0.005,0.008,0.051,0.057,0.067,0.244
17.34,-0.005,0.012,0.000,0.005,0.008,0.051,0.057,0.067,0.246
17.36,-0.005,-0.016,0.000,0.005,0.008,0.051,0.058,0.067,0.247
17.38,-0.005,0.004,0.010,0.005,0.008,0.051,0.058,0.067,0.248
17.40,0.005,0.012,0.010,0.005,0.008,0.051,0.058,0.068,0.249
17.42,0.005,0.012,0.010,0.005,0.008,0.051,0.058,0.068,0.250
17.44,-0.005,-0.006,-0.010,0.005,0.008,0.051,0.058,0.068,0.251
17.46,0.005,0.003,0.010,0.005,0.008,0.051,0.058,0.068,0.253
17.48,-0.005,0.003,0.010,0.005,0.008,0.051,0.058,0.068,0.254
17.50,0.004,0.012,0.000,0.005,0.008,0.052,0.058,0.069,0.255
17.52,0.004,0.002,0.000,0.005,0.008,0.052,0.058,0.069,0.256
17.54,-0.005,-0.016,0.010,0.005,0.008,0.052,0.059,0.069,0.257
17.56,-0.005,0.003,0.010,0.005,0.008,0.052,0.059,0.069,0.258
17.58,-0.005,-0.007,0.020,0.005,0.008,0.052,0.059,0.069,0.260
17.60,-0.005,-0.033,0.000,0.005,0.008,0.052,0.059,0.070,0.261
17.62,0.005,-0.003,0.020,0.005,0.008,0.052,0.059,0.070,0.262
17.64,-0.004,0.015,0.010,0.005,0.008,0.052,0.059,0.070,0.263
17.66,-0.004,0.005,0.010,0.005,0.008,0.052,0.059,0.070,0.265
17.68,-0.005,-0.005,0.000,0.005,0.008,0.053,0.059,0.070,0.267
17.70,-0.004,0.013,0.020,0.005,0.008,0.053,0.059,0.070,0.268
17.72,-0.004,0.013,0.010,0.005,0.008,0.053,0.060,0.071,0.269
17.74,-0.004,-0.024,0.000,0.005,0.008,0.053,0.060,0.071,0.270
17.76,-0.004,-0.004,0.000,0.005,0.008,0.053,0.060,0.071,0.271
17.78,-0.004,0.004,0.010,0.005,0.008,0.054,0.060,0.071,0.273
17.80,-0.004,0.004,0.010,0.005,0.008,0.054,0.060,0.071,0.274
17.82,-0.004,0.004,0.010,0.005,0.008,0.054,0.060,0.072,0.275
17.84,0.005,-0.023,-0.010,0.004,0.008,0.054,0.060,0.072,0.276
17.86,-0.005,0.016,0.000,0.004,0.008,0.054,0.060,0.072,0.277
17.88,0.005,0.023,-0.010,0.004,0.008,0.054,0.060,0.072,0.278
17.90,-0.005,-0.014,0.020,0.004,0.008,0.055,0.061,0.072,0.281
17.92,0.005,-0.005,0.010,0.004,0.008,0.055,0.061,0.073,0.282
17.94,0.005,0.005,0.000,0.004,0.008,0.055,0.061,0.073,0.283
17.96,0.005,0.014,0.020,0.004,0.008,0.055,0.061,0.073,0.284
17.98,-0.005,-0.022,0.000,0.004,0.008,0.055,0.061,0.073,0.285
18.00,-0.005,-0.013,0.020,0.004,0.008,0.055,0.061,0.073,0.286
18.02,0.005,0.032,0.020,0.004,0.008,0.056,0.061,0.073,0.288
18.04,0.005,-0.033,-0.020,0.004,0.008,0.056,0.061,0.074,0.289
18.06,0.005,-0.013,0.000,0.004,0.008,0.056,0.061,0.074,0.291
18.08,-0.004,-0.012,-0.010,0.004,0.008,0.056,0.061,0.074,0.292
18.10,-0.004,0.017,0.010,0.004,0.008,0.057,0.062,0.074,0.293
18.12,-0.005,0.003,0.010,0.004,0.008,0.057,0.062,0.074,0.295
18.14,-0.004,-0.033,0.000,0.004,0.008,0.057,0.062,0.075,0.296
18.16,0.005,0.016,-0.000,0.004,0.008,0.057,0.062,0.075,0.297
18.18,-0.004,0.024,-0.000,0.004,0.008,0.057,0.062,0.075,0.299
18.20,0.006,-0.015,-0.020,0.004,0.008,0.058,0.062,0.075,0.300
18.22,0.014,-0.005,-0.000,0.004,0.008,0.058,0.062,0.075,0.301
18.24,0.004,0.031,-0.000,0.004,0.008,0.058,0.062,0.076,0.303
18.26,0.004,0.021,-0.010,0.004,0.009,0.058,0.062,0.076,0.304
18.28,-0.005,-0.034,-0.030,0.004,0.009,0.058,0.062,0.076,0.305
18.30,-0.005,-0.015,-0.010,0.004,0.009,0.057,0.063,0.076,0.307
18.32,0.004,0.013,-0.000,0.004,0.009,0.057,0.063,0.076,0.308
18.34,0.004,0.012,-0.010,0.004,0.009,0.057,0.063,0.077,0.310
18.36,0.013,0.002,-0.010,0.004,0.009,0.057,0.063,0.077,0.311
18.38,-0.006,-0.007,-0.010,0.004,0.009,0.057,0.063,0.077,0.312
18.40,-0.006,0.032,-0.000,0.004,0.009,0.057,0.063,0.077,0.313
18.42,0.004,0.012,-0.000,0.004,0.009,0.057,0.063,0.077,0.315
18.44,0.003,0.002,-0.030,0.004,0.009,0.057,0.063,0.078,0.317
18.46,-0.006,0.002,-0.010,0.004,0.009,0.056,0.063,0.078,0.318
18.48,0.003,0.010,0.000,0.004,0.009,0.056,0.063,0.078,0.319
18.50,0.003,0.010,0.000,0.004,0.009,0.056,0.064,0.078,0.320
18.52,-0.006,-0.017,-0.010,0.004,0.009,0.056,0.064,0.078,0.321
18.54,-0.005,0.002,-0.000,0.004,0.009,0.056,0.064,0.079,0.324
18.56,-0.005,-0.008,-0.020,0.004,0.009,0.056,0.064,0.079,0.325
18.58,-0.005,0.002,-0.010,0.004,0.009,0.055,0.064,0.079,0.326
18.60,-0.005,0.002,-0.010,0.004,0.009,0.055,0.064,0.079,0.327
18.62,0.004,0.002,-0.020,0.004,0.009,0.055,0.064,0.079,0.328
18.64,-0.005,-0.007,-0.020,0.004,0.009,0.055,0.064,0.080,0.330
18.66,-0.005,-0.017,-0.020,0.004,0.009,0.054,0.064,0.080,0.331
18.68,-0.005,0.002,-0.010,0.004,0.009,0.054,0.065,0.080,0.332
18.70,-0.005,0.012,-0.020,0.004,0.009,0.054,0.065,0.080,0.334
18.72,-0.004,-0.007,-0.020,0.004,0.009,0.054,0.065,0.081,0.335
18.74,-0.004,-0.007,-0.010,0.004,0.009,0.053,0.065,0.081,0.336
18.76,-0.005,0.003,-0.010,0.004,0.009,0.053,0.065,0.081,0.338
18.78,0.005,-0.006,-0.010,0.004,0.009,0.053,0.065,0.081,0.339
18.80,0.005,-0.016,-0.000,0.004,0.009,0.052,0.065,0.081,0.340
18.82,0.004,0.003,-0.020,0.004,0.009,0.052,0.065,0.082,0.341
18.84,0.014,0.013,0.010,0.004,0.009,0.052,0.065,0.082,0.342
18.86,-0.005,-0.008,-0.020,0.004,0.009,0.051,0.065,0.082,0.344
18.88,0.004,0.002,-0.020,0.004,0.009,0.051,0.065,0.082,0.345
18.90,0.004,-0.008,-0.010,0.004,0.009,0.051,0.066,0.082,0.346
18.92,0.004,0.010,-0.020,0.004,0.009,0.051,0.066,0.083,0.347
18.94,0.004,0.010,-0.020,0.004,0.009,0.051,0.066,0.083,0.348
18.96,0.004,0.002,-0.020,0.004,0.009,0.050,0.066,0.083,0.350
18.98,-0.005,0.002,-0.010,0.004,0.009,0.050,0.066,0.083,0.351
19.00,-0.005,-0.008,0.000,0.004,0.009,0.050,0.066,0.084,0.352
19.02,0.004,0.002,-0.010,0.004,0.009,0.049,0.066,0.084,0.353
19.04,0.014,0.002,-0.020,0.004,0.009,0.049,0.066,0.084,0.354
19.06,-0.006,0.003,0.000,0.004,0.009,0.049,0.066,0.084,0.356
19.08,0.004,-0.006,-0.010,0.004,0.009,0.048,0.066,0.084,0.357
19.10,-0.006,0.003,-0.010,0.004,0.009,0.048,0.066,0.085,0.358
19.12,-0.006,0.012,-0.020,0.004,0.009,0.048,0.067,0.085,0.359
19.14,-0.006,0.002,-0.020,0.004,0.009,0.048,0.067,0.085,0.360
19.16,0.005,0.003,0.000,0.004,0.009,0.047,0.067,0.085,0.362
19.18,0.004,0.002,-0.020,0.004,0.009,0.047,0.067,0.085,0.363
19.20,0.004,0.002,-0.010,0.004,0.009,0.047,0.067,0.086,0.364
19.22,0.004,0.002,0.000,0.004,0.009,0.047,0.067,0.086,0.365
19.24,-0.006,-0.007,-0.020,0.004,0.009,0.046,0.067,0.086,0.366
19.26,0.003,0.001,0.000,0.004,0.009,0.046,0.067,0.086,0.367
19.28,-0.006,-0.017,-0.020,0.004,0.009,0.046,0.067,0.087,0.368
19.30,0.004,-0.007,-0.010,0.004,0.009,0.045,0.067,0.087,0.369
19.32,0.004,-0.015,-0.020,0.004,0.009,0.045,0.067,0.087,0.370
19.34,-0.006,-0.005,-0.010,0.004,0.009,0.045,0.068,0.087,0.371
19.36,-0.005,-0.006,-0.010,0.004,0.009,0.045,0.068,0.087,0.373
19.38,-0.005,-0.014,-0.010,0.004,0.009,0.044,0.068,0.088,0.374
19.40,-0.005,0.015,-0.010,0.004,0.008,0.044,0.068,0.088,0.375
19.42,-0.005,-0.004,-0.010,0.004,0.008,0.044,0.068,0.088,0.375
19.44,-0.005,-0.014,0.000,0.004,0.008,0.044,0.068,0.088,0.376
19.46,0.014,-0.004,-0.020,0.004,0.008,0.044,0.068,0.088,0.377
19.48,0.003,0.005,-0.010,0.004,0.008,0.043,0.068,0.089,0.379
19.50,0.013,0.015,0.000,0.004,0.008,0.043,0.068,0.089,0.380
19.52,-0.006,-0.004,0.000,0.004,0.008,0.043,0.068,0.089,0.381
19.54,0.004,-0.004,-0.020,0.004,0.008,0.043,0.069,0.089,0.382
19.56,-0.005,-0.004,-0.010,0.004,0.008,0.042,0.069,0.089,0.382
19.58,-0.005,-0.013,-0.020,0.004,0.008,0.042,0.069,0.089,0.383
19.60,0.015,0.015,0.000,0.004,0.008,0.042,0.069,0.090,0.385
19.62,-0.004,-0.004,-0.010,0.004,0.008,0.042,0.069,0.090,0.386
19.64,0.005,0.006,-0.020,0.004,0.008,0.041,0.069,0.090,0.387
19.66,0.005,0.005,0.000,0.004,0.008,0.041,0.069,0.090,0.387
19.68,0.005,0.005,-0.010,0.004,0.008,0.041,0.069,0.090,0.388
19.70,-0.004,0.016,0.010,0.004,0.008,0.041,0.069,0.091,0.390
19.72,-0.004,0.006,-0.010,0.004,0.008,0.041,0.069,0.091,0.391
19.74,0.006,0.006,-0.010,0.004,0.008,0.040,0.069,0.091,0.391
19.76,0.014,-0.003,-0.010,0.004,0.008,0.040,0.070,0.091,0.392
19.78,-0.005,-0.003,-0.010,0.004,0.008,0.040,0.070,0.091,0.393
19.80,0.004,0.006,-0.010,0.004,0.008,0.040,0.070,0.091,0.394
19.82,-0.005,-0.004,-0.020,0.004,0.008,0.040,0.070,0.092,0.395
19.84,-0.005,-0.013,0.000,0.004,0.008,0.039,0.070,0.092,0.396
19.86,-0.005,-0.003,0.020,0.004,0.008,0.039,0.070,0.092,0.397
19.88,0.005,0.036,0.030,0.004,0.008,0.039,0.070,0.092,0.398
19.90,0.005,0.024,0.039,0.004,0.008,0.039,0.070,0.092,0.399
19.92,0.004,-0.032,-0.020,0.004,0.008,0.039,0.070,0.093,0.400
19.94,-0.005,-0.002,0.010,0.004,0.008,0.039,0.070,0.093,0.401
19.96,-0.005,0.043,0.020,0.004,0.008,0.039,0.071,0.093,0.402
19.98,-0.005,0.013,0.020,0.004,0.009,0.039,0.071,0.093,0.403
20.00,-0.005,-0.015,0.010,0.004,0.009,0.039,0.071,0.093,0.403
20.02,0.005,-0.015,0.000,0.004,0.009,0.039,0.071,0.094,0.404
20.04,-0.005,0.023,0.020,0.004,0.009,0.040,0.071,0.094,0.406
20.06,-0.004,-0.024,-0.010,0.004,0.009,0.040,0.071,0.094,0.407
20.08,-0.004,0.004,0.010,0.004,0.009,0.040,0.071,0.094,0.408
20.10,-0.004,0.014,0.039,0.004,0.009,0.040,0.071,0.095,0.409
20.12,0.005,-0.006,0.010,0.004,0.009,0.041,0.072,0.095,0.411
20.14,-0.004,-0.006,0.010,0.004,0.009,0.041,0.072,0.095,0.411
20.16,0.015,0.004,0.010,0.004,0.009,0.041,0.072,0.095,0.412
20.18,0.005,0.012,0.010,0.004,0.009,0.041,0.072,0.096,0.413
20.20,-0.005,0.003,0.020,0.004,0.009,0.042,0.072,0.096,0.414
20.22,0.014,-0.015,0.010,0.004,0.009,0.042,0.072,0.096,0.415
20.24,-0.005,0.022,0.030,0.004,0.009,0.042,0.072,0.096,0.416
20.26,-0.005,0.022,0.030,0.004,0.009,0.042,0.072,0.096,0.417
20.28,0.004,-0.015,0.020,0.004,0.009,0.043,0.072,0.097,0.418
20.30,0.004,-0.005,0.010,0.004,0.009,0.043,0.072,0.097,0.419
20.32,-0.005,0.003,0.030,0.005,0.009,0.044,0.073,0.097,0.421
20.34,-0.005,0.012,0.030,0.005,0.009,0.044,0.073,0.097,0.421
20.36,0.005,-0.008,0.010,0.005,0.009,0.044,0.073,0.098,0.422
20.38,-0.004,-0.025,0.020,0.005,0.009,0.045,0.073,0.098,0.423
20.40,-0.004,0.014,0.020,0.005,0.009,0.045,0.073,0.098,0.424
20.42,0.006,-0.016,0.020,0.005,0.009,0.046,0.073,0.098,0.426
20.44,0.005,-0.015,0.010,0.005,0.009,0.046,0.073,0.099,0.427
20.46,-0.004,0.004,0.030,0.005,0.009,0.046,0.073,0.099,0.428
20.48,-0.004,0.022,0.030,0.005,0.009,0.047,0.073,0.099,0.429
20.50,-0.004,-0.007,0.030,0.005,0.009,0.047,0.073,0.099,0.430
20.52,-0.004,-0.024,0.000,0.004,0.009,0.048,0.074,0.099,0.432
20.54,0.005,0.013,0.039,0.004,0.009,0.048,0.074,0.100,0.433
20.56,-0.004,0.053,0.059,0.004,0.009,0.049,0.074,0.100,0.433
20.58,0.005,0.012,0.039,0.004,0.009,0.049,0.074,0.100,0.434
20.60,-0.005,-0.017,0.010,0.004,0.009,0.050,0.074,0.100,0.435
20.62,-0.004,-0.014,0.020,0.004,0.009,0.051,0.074,0.101,0.437
20.64,-0.004,0.014,0.030,0.004,0.009,0.051,0.074,0.101,0.438
20.66,0.015,0.024,-0.000,0.004,0.009,0.052,0.074,0.101,0.440
20.68,-0.004,-0.023,-0.030,0.004,0.009,0.052,0.074,0.101,0.441
20.70,0.016,-0.013,-0.030,0.004,0.009,0.052,0.075,0.101,0.442
20.72,-0.004,0.015,-0.010,0.004,0.009,0.053,0.075,0.102,0.444
20.74,-0.004,-0.013,-0.020,0.004,0.009,0.053,0.075,0.102,0.445
20.76,0.006,-0.013,-0.020,0.004,0.009,0.053,0.075,0.102,0.446
20.78,-0.004,0.015,-0.000,0.004,0.009,0.053,0.075,0.102,0.447
20.80,0.006,0.034,0.009,0.004,0.009,0.053,0.075,0.102,0.448
20.82,-0.003,0.004,-0.000,0.004,0.009,0.053,0.075,0.103,0.449
20.84,-0.003,0.022,-0.010,0.004,0.009,0.053,0.075,0.103,0.451
20.86,0.007,0.012,-0.000,0.004,0.009,0.053,0.075,0.103,0.452
20.88,-0.003,0.011,-0.010,0.004,0.010,0.053,0.075,0.103,0.453
20.90,-0.003,0.001,-0.020,0.004,0.010,0.053,0.076,0.104,0.454
20.92,0.006,-0.017,-0.020,0.004,0.010,0.053,0.076,0.104,0.455
20.94,0.006,0.020,-0.000,0.005,0.010,0.053,0.076,0.104,0.457
20.96,0.006,0.011,-0.000,0.005,0.010,0.053,0.076,0.104,0.458
20.98,0.005,-0.017,-0.020,0.005,0.010,0.053,0.076,0.105,0.460
21.00,-0.004,-0.017,-0.010,0.005,0.010,0.052,0.076,0.105,0.461
21.02,-0.004,-0.016,-0.010,0.005,0.010,0.052,0.076,0.105,0.462
21.04,-0.004,0.004,-0.020,0.005,0.010,0.052,0.076,0.105,0.464
21.06,-0.004,-0.016,-0.020,0.005,0.010,0.052,0.077,0.106,0.465
21.08,0.005,0.012,-0.000,0.005,0.010,0.052,0.077,0.106,0.466
21.10,-0.004,0.022,-0.000,0.005,0.010,0.052,0.077,0.106,0.467
21.12,-0.004,0.002,-0.010,0.005,0.010,0.052,0.077,0.106,0.468
21.14,-0.004,-0.025,-0.030,0.005,0.010,0.051,0.077,0.107,0.470
21.16,-0.004,-0.005,-0.020,0.005,0.010,0.051,0.077,0.107,0.471
21.18,0.006,0.013,-0.010,0.005,0.010,0.051,0.077,0.107,0.472
21.20,0.006,0.013,-0.000,0.005,0.010,0.051,0.077,0.107,0.473
21.22,-0.004,-0.006,-0.020,0.005,0.010,0.050,0.077,0.107,0.474
21.24,0.005,0.003,-0.010,0.005,0.010,0.050,0.078,0.108,0.476
21.26,-0.004,0.013,-0.000,0.005,0.010,0.050,0.078,0.108,0.477
21.28,0.005,-0.006,-0.000,0.005,0.010,0.049,0.078,0.108,0.478
21.30,0.005,-0.015,-0.020,0.005,0.010,0.049,0.078,0.108,0.479
21.32,-0.004,-0.005,-0.010,0.005,0.010,0.049,0.078,0.109,0.480
21.34,0.005,0.024,-0.010,0.005,0.010,0.049,0.078,0.109,0.481
21.36,-0.005,-0.015,-0.020,0.005,0.010,0.048,0.078,0.109,0.483
21.38,0.004,-0.014,-0.010,0.005,0.010,0.048,0.078,0.109,0.484
21.40,0.004,0.015,-0.030,0.005,0.010,0.048,0.079,0.110,0.485
21.42,-0.005,0.005,-0.010,0.005,0.010,0.048,0.079,0.110,0.486
21.44,-0.005,-0.014,-0.030,0.005,0.010,0.047,0.079,0.110,0.487
21.46,-0.005,-0.003,-0.030,0.005,0.010,0.047,0.079,0.110,0.489
21.48,-0.005,0.024,-0.010,0.005,0.010,0.046,0.079,0.111,0.489
21.50,0.005,0.014,-0.000,0.005,0.010,0.046,0.079,0.111,0.490
21.52,-0.004,-0.005,0.010,0.005,0.010,0.046,0.079,0.111,0.491
21.54,-0.004,-0.005,0.010,0.005,0.010,0.045,0.079,0.111,0.492
21.56,-0.004,-0.005,0.010,0.005,0.010,0.045,0.079,0.111,0.493
21.58,-0.003,0.005,-0.000,0.005,0.010,0.045,0.080,0.112,0.495
21.60,-0.003,-0.015,-0.000,0.005,0.010,0.045,0.080,0.112,0.496
21.62,0.006,0.004,-0.000,0.005,0.010,0.045,0.080,0.112,0.497
21.64,-0.004,0.014,0.010,0.005,0.010,0.045,0.080,0.112,0.498
21.66,0.005,0.013,0.010,0.005,0.010,0.045,0.080,0.113,0.499
21.68,0.005,-0.015,-0.010,0.005,0.010,0.045,0.080,0.113,0.500
21.70,0.005,-0.005,-0.010,0.005,0.010,0.044,0.080,0.113,0.501
21.72,-0.004,0.004,0.010,0.005,0.010,0.044,0.081,0.113,0.502
21.74,0.005,0.014,-0.000,0.005,0.010,0.044,0.081,0.114,0.503
21.76,0.005,-0.005,-0.010,0.005,0.010,0.044,0.081,0.114,0.504
21.78,0.005,-0.005,-0.000,0.005,0.010,0.044,0.081,0.114,0.505
21.80,-0.005,0.014,0.010,0.006,0.010,0.044,0.081,0.114,0.507
21.82,0.004,-0.005,-0.010,0.006,0.010,0.044,0.081,0.115,0.507
21.84,0.004,-0.005,-0.000,0.006,0.010,0.044,0.081,0.115,0.508
21.86,-0.005,0.004,-0.000,0.006,0.011,0.044,0.081,0.115,0.509
21.88,-0.005,0.014,-0.000,0.006,0.011,0.044,0.082,0.115,0.510
21.90,-0.006,-0.016,-0.000,0.006,0.011,0.044,0.082,0.116,0.512
21.92,-0.005,-0.005,-0.010,0.006,0.011,0.044,0.082,0.116,0.513
21.94,-0.005,0.004,-0.000,0.006,0.011,0.044,0.082,0.116,0.514
21.96,-0.005,0.013,-0.000,0.006,0.011,0.044,0.082,0.116,0.514
21.98,0.005,0.003,-0.010,0.006,0.011,0.044,0.082,0.117,0.515
22.00,0.004,0.004,-0.010,0.006,0.011,0.044,0.082,0.117,0.517
22.02,-0.005,0.021,0.020,0.006,0.011,0.044,0.083,0.117,0.518
22.04,0.005,-0.008,-0.000,0.006,0.011,0.044,0.083,0.117,0.519
22.06,0.005,-0.007,-0.000,0.006,0.011,0.044,0.083,0.118,0.520
22.08,-0.005,0.002,-0.010,0.006,0.011,0.044,0.083,0.118,0.521
22.10,0.005,0.011,-0.010,0.006,0.011,0.044,0.083,0.118,0.522
22.12,0.005,-0.017,-0.010,0.006,0.011,0.044,0.083,0.118,0.523
22.14,-0.005,-0.007,0.019,0.006,0.011,0.044,0.083,0.119,0.524
22.16,0.013,0.012,0.010,0.006,0.011,0.044,0.083,0.119,0.525
22.18,-0.006,0.002,0.010,0.006,0.011,0.044,0.084,0.119,0.526
22.20,-0.006,-0.007,-0.000,0.006,0.011,0.044,0.084,0.119,0.527
22.22,-0.005,-0.024,-0.000,0.006,0.011,0.044,0.084,0.120,0.528
22.24,0.004,0.024,-0.000,0.006,0.011,0.044,0.084,0.120,0.529
22.26,0.004,0.013,-0.000,0.006,0.011,0.044,0.084,0.120,0.530
22.28,-0.006,-0.016,-0.010,0.006,0.011,0.044,0.084,0.121,0.531
22.30,0.004,0.003,-0.000,0.006,0.011,0.044,0.084,0.121,0.532
22.32,0.003,0.012,0.010,0.006,0.011,0.044,0.085,0.121,0.534
22.34,-0.006,0.002,0.000,0.006,0.011,0.044,0.085,0.121,0.535
22.36,-0.006,-0.034,-0.010,0.006,0.011,0.044,0.085,0.122,0.535
22.38,0.014,0.005,0.010,0.006,0.011,0.044,0.085,0.122,0.536
22.40,0.004,0.005,0.010,0.006,0.011,0.044,0.085,0.122,0.537
22.42,0.003,-0.004,-0.010,0.006,0.011,0.044,0.085,0.123,0.539
22.44,-0.006,-0.014,-0.020,0.006,0.011,0.044,0.085,0.123,0.540
22.46,0.003,0.005,0.010,0.006,0.011,0.044,0.086,0.123,0.541
22.48,-0.007,0.015,0.000,0.006,0.011,0.044,0.086,0.123,0.541
22.50,-0.006,0.004,0.000,0.006,0.011,0.044,0.086,0.123,0.542
22.52,0.012,-0.005,0.000,0.005,0.011,0.043,0.086,0.124,0.544
22.54,0.002,0.024,-0.010,0.005,0.011,0.043,0.086,0.124,0.545
22.56,-0.007,-0.004,0.000,0.005,0.011,0.043,0.086,0.124,0.546
22.58,0.003,0.005,0.000,0.005,0.011,0.043,0.086,0.125,0.547
22.60,-0.006,0.005,0.000,0.005,0.011,0.043,0.086,0.125,0.548
22.62,-0.006,0.022,0.010,0.005,0.011,0.043,0.087,0.125,0.549
22.64,-0.006,-0.007,0.000,0.005,0.011,0.043,0.087,0.125,0.550
22.66,0.004,-0.006,-0.010,0.005,0.011,0.043,0.087,0.126,0.551
22.68,0.004,0.003,0.010,0.005,0.012,0.043,0.087,0.126,0.552
22.70,0.003,0.003,0.000,0.005,0.012,0.043,0.087,0.126,0.553
22.72,-0.006,-0.007,0.000,0.005,0.012,0.043,0.087,0.126,0.554
22.74,-0.007,0.004,-0.010,0.005,0.012,0.043,0.087,0.127,0.555
22.76,-0.006,0.003,-0.010,0.005,0.012,0.043,0.087,0.127,0.556
22.78,0.004,0.013,0.000,0.005,0.012,0.043,0.088,0.127,0.557
22.80,-0.005,0.003,-0.010,0.005,0.012,0.043,0.088,0.128,0.558
22.82,0.004,0.013,0.010,0.005,0.012,0.043,0.088,0.128,0.559
22.84,0.014,-0.007,0.000,0.005,0.012,0.043,0.088,0.128,0.561
22.86,0.003,0.002,-0.010,0.005,0.012,0.043,0.088,0.129,0.561
22.88,0.003,-0.017,-0.010,0.005,0.012,0.043,0.088,0.129,0.562
22.90,-0.006,0.011,0.000,0.005,0.012,0.043,0.088,0.129,0.563
22.92,0.004,0.001,-0.010,0.005,0.012,0.043,0.088,0.129,0.564
22.94,0.004,-0.018,-0.010,0.005,0.012,0.043,0.089,0.130,0.566
22.96,0.013,0.001,0.010,0.005,0.012,0.042,0.089,0.130,0.566
22.98,0.003,0.011,0.000,0.005,0.012,0.042,0.089,0.130,0.567
23.00,0.003,-0.008,0.000,0.005,0.012,0.042,0.089,0.130,0.568
23.02,-0.007,-0.018,0.000,0.005,0.012,0.042,0.089,0.131,0.569
23.04,0.003,0.021,0.000,0.005,0.012,0.042,0.089,0.131,0.571
23.06,0.002,0.011,-0.039,0.005,0.012,0.042,0.089,0.131,0.572
23.08,0.002,0.001,-0.020,0.005,0.012,0.042,0.089,0.132,0.572
23.10,0.011,0.001,0.000,0.005,0.012,0.042,0.090,0.132,0.573
23.12,-0.008,0.030,0.010,0.006,0.012,0.042,0.090,0.132,0.574
23.14,-0.008,-0.038,0.000,0.006,0.012,0.042,0.090,0.133,0.576
23.16,0.011,0.010,-0.020,0.006,0.012,0.042,0.090,0.133,0.577
23.18,0.001,0.020,-0.000,0.006,0.012,0.042,0.090,0.133,0.577
23.20,0.010,0.000,-0.020,0.006,0.012,0.042,0.090,0.133,0.578
23.22,0.010,0.000,-0.000,0.006,0.012,0.041,0.090,0.134,0.579
23.24,-0.009,0.002,-0.000,0.006,0.012,0.041,0.091,0.134,0.581
23.26,0.010,0.020,0.010,0.006,0.012,0.041,0.091,0.134,0.582
23.28,-0.010,0.000,-0.000,0.006,0.012,0.041,0.091,0.135,0.582
23.30,-0.009,-0.018,-0.010,0.006,0.012,0.041,0.091,0.135,0.583
23.32,-0.009,0.002,-0.010,0.006,0.012,0.041,0.091,0.135,0.584
23.34,0.002,0.011,-0.000,0.006,0.012,0.041,0.091,0.136,0.586
23.36,0.010,-0.008,-0.010,0.006,0.012,0.041,0.091,0.136,0.586
23.38,0.010,-0.018,-0.010,0.006,0.012,0.041,0.091,0.136,0.587
23.40,-0.008,0.002,-0.000,0.006,0.012,0.041,0.092,0.136,0.588
23.42,0.001,0.011,0.019,0.006,0.012,0.041,0.092,0.137,0.589
23.44,-0.008,0.001,0.010,0.006,0.012,0.041,0.092,0.137,0.590
23.46,0.020,0.001,-0.010,0.006,0.012,0.041,0.092,0.137,0.591
23.48,0.000,0.021,-0.000,0.006,0.012,0.040,0.092,0.138,0.592
23.50,-0.009,0.019,-0.010,0.006,0.013,0.040,0.092,0.138,0.593
23.52,-0.009,-0.030,0.010,0.006,0.013,0.040,0.092,0.138,0.594
23.54,0.001,-0.018,-0.010,0.006,0.013,0.040,0.092,0.138,0.595
23.56,-0.008,0.010,-0.000,0.005,0.012,0.040,0.093,0.139,0.596
23.58,0.002,-0.009,-0.000,0.005,0.012,0.040,0.093,0.139,0.597
23.60,-0.007,-0.018,-0.000,0.005,0.012,0.040,0.093,0.139,0.598
23.62,0.002,-0.008,-0.000,0.005,0.012,0.040,0.093,0.140,0.599
23.64,0.011,0.011,0.010,0.005,0.012,0.040,0.093,0.140,0.599
23.66,0.001,-0.008,-0.000,0.005,0.012,0.040,0.093,0.140,0.601
23.68,0.001,-0.018,-0.000,0.005,0.012,0.040,0.093,0.141,0.602
23.70,-0.008,0.010,0.019,0.005,0.012,0.040,0.094,0.141,0.603
23.72,-0.008,0.010,0.010,0.005,0.012,0.040,0.094,0.141,0.603
23.74,-0.007,0.001,0.010,0.005,0.012,0.040,0.094,0.141,0.604
23.76,0.002,-0.008,-0.010,0.005,0.012,0.040,0.094,0.142,0.606
23.78,-0.007,0.011,0.019,0.005,0.012,0.040,0.094,0.142,0.607
23.80,0.002,0.001,0.010,0.005,0.012,0.040,0.094,0.142,0.607
23.82,0.002,-0.018,-0.000,0.005,0.012,0.041,0.094,0.142,0.608
23.84,0.002,-0.026,0.010,0.005,0.012,0.041,0.094,0.143,0.609
23.86,-0.007,0.012,0.019,0.005,0.012,0.041,0.095,0.143,0.611
23.88,-0.007,-0.017,-0.010,0.005,0.012,0.041,0.095,0.143,0.612
23.90,0.011,-0.024,-0.010,0.005,0.012,0.041,0.095,0.144,0.612
23.92,-0.008,0.005,0.019,0.005,0.012,0.041,0.095,0.144,0.613
23.94,-0.007,0.004,0.019,0.005,0.012,0.041,0.095,0.144,0.614
23.96,-0.007,-0.014,0.010,0.005,0.012,0.041,0.095,0.145,0.616
23.98,-0.007,-0.014,-0.010,0.005,0.012,0.042,0.095,0.145,0.616
24.00,0.012,-0.004,0.019,0.005,0.012,0.042,0.095,0.145,0.617
24.02,0.021,0.026,-0.000,0.005,0.012,0.042,0.095,0.145,0.618
24.04,-0.007,0.014,-0.000,0.005,0.012,0.042,0.096,0.146,0.619
24.06,0.002,-0.005,-0.010,0.005,0.012,0.042,0.096,0.146,0.621
24.08,-0.007,0.005,0.009,0.005,0.012,0.042,0.096,0.146,0.622
24.10,-0.007,0.014,-0.020,0.005,0.012,0.042,0.096,0.146,0.622
24.12,0.003,0.004,-0.000,0.005,0.012,0.042,0.096,0.147,0.623
24.14,0.002,-0.005,-0.010,0.005,0.012,0.042,0.096,0.147,0.625
24.16,0.002,0.014,-0.000,0.005,0.012,0.042,0.096,0.147,0.626
24.18,0.012,0.004,-0.010,0.005,0.012,0.042,0.096,0.148,0.627
24.20,-0.007,0.003,-0.010,0.005,0.012,0.042,0.096,0.148,0.627
24.22,0.003,0.003,-0.010,0.005,0.012,0.042,0.097,0.148,0.629
24.24,-0.007,0.013,-0.010,0.005,0.012,0.042,0.097,0.149,0.630
24.26,0.011,-0.006,-0.020,0.005,0.012,0.042,0.097,0.149,0.631
24.28,0.021,-0.006,-0.020,0.005,0.012,0.042,0.097,0.149,0.632
24.30,0.001,0.012,-0.010,0.005,0.012,0.042,0.097,0.150,0.633
24.32,-0.008,0.002,-0.000,0.005,0.012,0.041,0.097,0.150,0.634
24.34,-0.008,-0.017,-0.000,0.005,0.012,0.041,0.097,0.150,0.635
24.36,-0.008,-0.007,-0.000,0.005,0.012,0.041,0.097,0.150,0.636
24.38,0.002,0.003,-0.000,0.005,0.012,0.041,0.098,0.150,0.637
24.40,0.011,-0.007,-0.010,0.005,0.012,0.041,0.098,0.151,0.638
24.42,0.019,0.002,-0.010,0.005,0.012,0.041,0.098,0.151,0.639
24.44,-0.001,0.022,-0.000,0.005,0.012,0.041,0.098,0.151,0.640
24.46,-0.009,0.002,-0.000,0.005,0.012,0.041,0.098,0.152,0.641
24.48,0.000,-0.007,-0.010,0.005,0.012,0.041,0.098,0.152,0.641
24.50,0.001,0.002,-0.000,0.005,0.012,0.040,0.098,0.152,0.643
24.52,-0.008,0.020,-0.020,0.005,0.012,0.040,0.098,0.153,0.644
24.54,0.002,0.010,-0.000,0.005,0.013,0.040,0.099,0.153,0.645
24.56,0.020,0.009,-0.010,0.005,0.013,0.040,0.099,0.153,0.646
24.58,0.010,0.009,-0.000,0.005,0.013,0.040,0.099,0.153,0.646
24.60,-0.013,0.011,-0.000,0.006,0.013,0.040,0.099,0.154,0.648
24.62,-0.021,0.019,-0.010,0.006,0.013,0.040,0.099,0.154,0.649
24.64,-0.021,0.019,-0.000,0.006,0.013,0.040,0.099,0.154,0.650
24.66,-0.010,-0.001,0.009,0.006,0.013,0.039,0.099,0.155,0.650
24.68,-0.000,-0.010,0.009,0.006,0.013,0.039,0.099,0.155,0.651
24.70,0.017,-0.018,-0.000,0.006,0.013,0.039,0.100,0.155,0.652
24.72,-0.002,-0.008,-0.010,0.006,0.013,0.039,0.100,0.156,0.653
24.74,-0.002,0.002,-0.010,0.006,0.013,0.039,0.100,0.156,0.654
24.76,-0.002,0.011,0.009,0.006,0.013,0.039,0.100,0.156,0.655
24.78,-0.012,0.001,-0.000,0.006,0.013,0.039,0.100,0.157,0.656
24.80,-0.020,-0.010,0.009,0.006,0.013,0.039,0.100,0.157,0.657
24.82,0.000,-0.009,-0.000,0.006,0.013,0.039,0.100,0.157,0.658
24.84,0.020,0.001,-0.000,0.006,0.013,0.039,0.101,0.158,0.659
24.86,0.027,0.001,0.010,0.006,0.013,0.039,0.101,0.158,0.660
24.88,-0.020,0.001,-0.000,0.006,0.013,0.039,0.101,0.159,0.661
24.90,-0.030,-0.009,0.019,0.006,0.013,0.039,0.101,0.159,0.662
24.92,-0.018,0.001,0.009,0.006,0.013,0.039,0.101,0.159,0.663
24.94,-0.018,0.010,0.009,0.005,0.013,0.039,0.101,0.159,0.664
24.96,0.020,0.001,-0.010,0.005,0.014,0.040,0.101,0.160,0.665
24.98,0.018,0.000,0.010,0.005,0.014,0.040,0.102,0.160,0.666
25.00,-0.001,0.000,-0.000,0.005,0.014,0.040,0.102,0.160,0.667
25.02,-0.010,0.009,0.009,0.005,0.014,0.040,0.102,0.161,0.668
25.04,-0.010,-0.010,0.009,0.005,0.014,0.040,0.102,0.161,0.668
25.06,-0.018,-0.000,0.009,0.005,0.014,0.040,0.102,0.161,0.669
25.08,-0.008,0.018,0.019,0.005,0.014,0.040,0.102,0.162,0.671
25.10,0.012,-0.002,0.009,0.005,0.014,0.040,0.102,0.162,0.672
25.12,0.020,-0.011,0.009,0.005,0.014,0.040,0.102,0.162,0.672
25.14,0.010,-0.020,-0.010,0.005,0.014,0.041,0.103,0.163,0.673
25.16,0.009,-0.001,0.010,0.005,0.014,0.041,0.103,0.163,0.674
25.18,-0.009,-0.010,0.009,0.005,0.014,0.041,0.103,0.163,0.676
25.20,-0.029,-0.010,0.019,0.005,0.014,0.041,0.103,0.164,0.676
25.22,-0.009,0.000,0.019,0.005,0.014,0.041,0.103,0.164,0.677
25.24,0.001,0.000,0.009,0.005,0.014,0.041,0.103,0.164,0.678
25.26,0.019,-0.009,0.019,0.005,0.014,0.042,0.103,0.164,0.679
25.28,0.008,-0.008,0.009,0.005,0.013,0.042,0.103,0.165,0.681
25.30,-0.001,0.002,0.019,0.005,0.013,0.042,0.103,0.165,0.681
25.32,-0.010,0.010,0.009,0.005,0.013,0.042,0.104,0.166,0.682
25.34,-0.020,-0.009,-0.000,0.005,0.013,0.043,0.104,0.166,0.683
25.36,-0.009,-0.008,0.009,0.005,0.013,0.043,0.104,0.166,0.684
25.38,0.000,0.001,0.009,0.005,0.013,0.043,0.104,0.166,0.685
25.40,0.019,0.011,0.009,0.005,0.013,0.043,0.104,0.167,0.687
25.42,0.018,-0.008,0.019,0.005,0.013,0.044,0.104,0.167,0.688
25.44,0.008,0.012,0.010,0.005,0.013,0.044,0.104,0.167,0.688
25.46,-0.011,0.002,0.009,0.005,0.013,0.044,0.104,0.168,0.689
25.48,-0.011,-0.018,-0.000,0.005,0.013,0.044,0.104,0.168,0.690
25.50,-0.000,0.002,-0.000,0.005,0.013,0.045,0.105,0.168,0.692
25.52,0.009,0.020,0.009,0.005,0.013,0.045,0.105,0.169,0.693
25.54,0.019,0.001,0.009,0.005,0.013,0.045,0.105,0.169,0.694
25.56,-0.001,0.001,0.019,0.005,0.013,0.045,0.105,0.169,0.695
25.58,0.009,-0.019,-0.000,0.005,0.013,0.045,0.105,0.169,0.696
25.60,-0.010,0.010,0.009,0.005,0.013,0.046,0.105,0.170,0.697
25.62,-0.009,0.000,0.019,0.005,0.013,0.046,0.105,0.170,0.698
25.64,0.001,0.000,0.009,0.005,0.013,0.046,0.105,0.171,0.699
25.66,0.019,0.000,0.009,0.005,0.013,0.046,0.106,0.171,0.700
25.68,0.009,0.000,0.000,0.005,0.013,0.046,0.106,0.171,0.701
25.70,-0.010,0.000,-0.000,0.005,0.013,0.047,0.106,0.171,0.702
25.72,-0.009,0.000,-0.000,0.005,0.013,0.047,0.106,0.172,0.704
25.74,-0.009,0.000,-0.000,0.005,0.013,0.047,0.106,0.172,0.705
25.76,-0.008,0.000,-0.000,0.005,0.013,0.047,0.106,0.172,0.706
25.78,-0.008,-0.009,-0.010,0.005,0.013,0.047,0.106,0.173,0.707
25.80,0.001,-0.009,-0.010,0.005,0.013,0.047,0.106,0.173,0.708
25.82,0.001,0.001,-0.000,0.005,0.013,0.047,0.107,0.173,0.709
25.84,0.011,0.011,-0.000,0.005,0.013,0.047,0.107,0.174,0.710
25.86,-0.008,0.001,-0.000,0.005,0.013,0.047,0.107,0.174,0.711
25.88,-0.008,0.001,-0.000,0.005,0.013,0.047,0.107,0.174,0.712
25.90,-0.007,-0.008,-0.010,0.005,0.013,0.047,0.107,0.174,0.713
25.92,0.020,0.010,-0.000,0.005,0.012,0.047,0.107,0.175,0.715
25.94,0.010,0.001,-0.010,0.005,0.012,0.047,0.107,0.175,0.716
25.96,0.019,-0.008,-0.010,0.005,0.012,0.047,0.107,0.175,0.717
25.98,-0.011,-0.008,-0.000,0.005,0.012,0.047,0.108,0.176,0.718
26.00,-0.010,0.001,-0.010,0.005,0.012,0.047,0.108,0.176,0.719
26.02,0.000,0.019,-0.010,0.005,0.012,0.047,0.108,0.176,0.721
26.04,-0.010,-0.010,-0.010,0.005,0.012,0.047,0.108,0.177,0.722
26.06,-0.009,-0.009,-0.020,0.005,0.012,0.047,0.108,0.177,0.723
26.08,0.001,-0.019,-0.010,0.005,0.012,0.046,0.108,0.177,0.724
26.10,0.001,0.000,-0.010,0.005,0.012,0.046,0.108,0.177,0.725
26.12,0.001,0.018,-0.000,0.005,0.012,0.046,0.108,0.178,0.726
26.14,-0.009,-0.011,-0.010,0.005,0.012,0.046,0.109,0.178,0.727
26.16,-0.008,0.008,-0.010,0.005,0.012,0.046,0.109,0.178,0.728
26.18,-0.008,0.018,0.010,0.005,0.012,0.046,0.109,0.179,0.729
26.20,0.001,0.007,-0.020,0.005,0.012,0.045,0.109,0.179,0.730
26.22,-0.008,-0.012,-0.020,0.005,0.012,0.045,0.109,0.179,0.731
26.24,0.009,-0.002,-0.020,0.005,0.012,0.045,0.109,0.180,0.733
26.26,-0.000,-0.002,-0.020,0.005,0.012,0.045,0.109,0.180,0.734
26.28,-0.000,-0.011,-0.020,0.005,0.012,0.044,0.109,0.180,0.735
26.30,-0.009,-0.010,-0.020,0.005,0.012,0.044,0.109,0.180,0.735
26.32,-0.009,0.008,-0.020,0.005,0.012,0.044,0.110,0.181,0.737
26.34,-0.009,-0.001,-0.000,0.005,0.012,0.043,0.110,0.181,0.738
26.36,0.001,-0.010,-0.020,0.005,0.012,0.043,0.110,0.181,0.739
26.38,0.011,-0.010,-0.010,0.005,0.012,0.043,0.110,0.182,0.740
26.40,0.010,-0.009,-0.010,0.005,0.012,0.043,0.110,0.182,0.741
26.42,-0.009,0.000,-0.020,0.005,0.012,0.042,0.110,0.182,0.742
26.44,-0.009,0.000,-0.010,0.004,0.012,0.042,0.110,0.182,0.743
26.46,-0.008,0.009,-0.020,0.004,0.012,0.042,0.110,0.183,0.744
26.48,-0.008,-0.000,-0.010,0.004,0.012,0.041,0.110,0.183,0.745
26.50,0.010,-0.000,-0.030,0.004,0.012,0.041,0.111,0.183,0.746
26.52,0.001,-0.000,0.000,0.004,0.012,0.041,0.111,0.183,0.746
26.54,0.019,0.001,0.010,0.004,0.012,0.040,0.111,0.184,0.748
26.56,-0.010,-0.008,0.010,0.004,0.012,0.040,0.111,0.184,0.749
26.58,-0.010,0.002,0.010,0.004,0.012,0.040,0.111,0.184,0.750
26.60,-0.009,0.002,0.010,0.004,0.012,0.040,0.111,0.185,0.751
26.62,-0.009,0.002,0.010,0.004,0.012,0.040,0.111,0.185,0.751
26.64,0.001,0.002,0.000,0.004,0.011,0.040,0.111,0.185,0.753
26.66,0.010,-0.006,-0.010,0.004,0.011,0.040,0.111,0.186,0.754
26.68,-0.000,-0.007,0.000,0.004,0.011,0.040,0.111,0.186,0.755
26.70,-0.000,0.003,0.010,0.004,0.011,0.040,0.112,0.186,0.755
26.72,-0.010,-0.007,0.010,0.004,0.011,0.040,0.112,0.186,0.756
26.74,0.001,0.003,0.010,0.004,0.011,0.040,0.112,0.187,0.758
26.76,0.019,0.002,0.010,0.004,0.011,0.040,0.112,0.187,0.759
26.78,0.038,-0.007,-0.010,0.004,0.011,0.040,0.112,0.187,0.759
26.80,0.017,-0.016,0.000,0.004,0.011,0.040,0.112,0.187,0.760
26.82,-0.002,-0.016,-0.010,0.004,0.011,0.040,0.112,0.188,0.761
26.84,-0.011,0.021,0.000,0.005,0.011,0.040,0.112,0.188,0.762
26.86,-0.010,0.011,-0.010,0.005,0.011,0.040,0.112,0.188,0.763
26.88,-0.010,-0.019,0.000,0.005,0.011,0.040,0.113,0.188,0.764
26.90,-0.009,-0.008,-0.010,0.005,0.011,0.040,0.113,0.189,0.765
26.92,0.000,0.002,-0.010,0.005,0.011,0.040,0.113,0.189,0.766
26.94,0.000,-0.007,-0.010,0.005,0.011,0.040,0.113,0.189,0.766
26.96,0.000,0.002,-0.010,0.004,0.011,0.039,0.113,0.189,0.768
26.98,-0.009,-0.008,0.000,0.004,0.011,0.039,0.113,0.190,0.769
27.00,-0.009,-0.007,-0.010,0.004,0.011,0.039,0.113,0.190,0.770
27.02,-0.009,0.003,0.020,0.004,0.011,0.039,0.113,0.190,0.770
27.04,-0.008,0.002,0.000,0.004,0.011,0.039,0.113,0.190,0.771
27.06,0.011,0.011,-0.010,0.004,0.011,0.039,0.113,0.191,0.773
27.08,0.011,-0.008,0.010,0.004,0.011,0.039,0.114,0.191,0.774
27.10,0.010,-0.008,0.000,0.004,0.010,0.039,0.114,0.191,0.774
27.12,0.020,0.012,0.010,0.004,0.010,0.039,0.114,0.191,0.775
27.14,-0.009,0.002,0.000,0.004,0.010,0.039,0.114,0.192,0.776
27.16,-0.009,-0.008,0.000,0.004,0.010,0.039,0.114,0.192,0.777
27.18,-0.019,0.002,-0.010,0.004,0.010,0.039,0.114,0.192,0.778
27.20,-0.008,0.002,0.000,0.004,0.010,0.039,0.114,0.192,0.779
27.22,0.001,0.011,0.000,0.004,0.010,0.039,0.114,0.193,0.780
27.24,0.001,-0.016,0.010,0.004,0.010,0.039,0.114,0.193,0.781
27.26,0.021,0.013,-0.010,0.004,0.010,0.039,0.114,0.193,0.781
27.28,-0.009,-0.017,0.000,0.004,0.010,0.039,0.115,0.193,0.783
27.30,0.000,-0.006,-0.010,0.004,0.010,0.039,0.115,0.194,0.784
27.32,0.000,-0.006,0.000,0.004,0.010,0.039,0.115,0.194,0.784
27.34,-0.009,0.003,0.010,0.004,0.010,0.039,0.115,0.194,0.785
27.36,0.001,0.023,-0.000,0.004,0.010,0.039,0.115,0.194,0.786
27.38,0.010,-0.006,-0.020,0.004,0.010,0.039,0.115,0.195,0.787
27.40,-0.009,0.003,-0.020,0.004,0.010,0.039,0.115,0.195,0.788
27.42,-0.009,-0.006,-0.030,0.004,0.010,0.039,0.115,0.195,0.789
27.44,0.001,0.021,-0.000,0.004,0.010,0.039,0.115,0.195,0.790
27.46,-0.009,0.001,-0.020,0.004,0.010,0.039,0.115,0.196,0.791
27.48,-0.008,-0.017,-0.030,0.004,0.010,0.038,0.115,0.196,0.791
27.50,-0.007,-0.006,-0.030,0.004,0.010,0.038,0.116,0.196,0.793
27.52,-0.007,-0.006,-0.030,0.004,0.010,0.038,0.116,0.196,0.794
27.54,0.020,0.003,-0.010,0.004,0.010,0.037,0.116,0.197,0.794
27.56,0.010,0.003,-0.030,0.004,0.010,0.037,0.116,0.197,0.795
27.58,0.000,0.003,-0.010,0.004,0.010,0.037,0.116,0.197,0.796
27.60,-0.009,0.012,-0.020,0.004,0.010,0.036,0.116,0.197,0.797
27.62,-0.009,0.012,-0.020,0.004,0.010,0.036,0.116,0.198,0.798
27.64,-0.008,0.002,-0.020,0.003,0.010,0.036,0.116,0.198,0.799
27.66,-0.008,-0.008,-0.020,0.003,0.010,0.035,0.116,0.198,0.800
27.68,0.002,-0.007,-0.020,0.003,0.010,0.035,0.116,0.198,0.800
27.70,0.011,0.002,-0.030,0.003,0.010,0.035,0.116,0.198,0.801
27.72,-0.009,0.003,-0.030,0.003,0.010,0.034,0.116,0.199,0.802
27.74,-0.008,0.012,-0.010,0.003,0.010,0.033,0.117,0.199,0.803
27.76,-0.008,0.002,-0.020,0.003,0.010,0.033,0.117,0.199,0.804
27.78,-0.008,-0.007,-0.020,0.003,0.010,0.033,0.117,0.199,0.804
27.80,-0.008,-0.007,-0.020,0.003,0.010,0.032,0.117,0.200,0.805
27.82,0.021,0.002,-0.020,0.003,0.010,0.031,0.117,0.200,0.806
27.84,0.011,0.002,-0.020,0.003,0.010,0.031,0.117,0.200,0.807
27.86,0.001,-0.008,-0.020,0.003,0.010,0.031,0.117,0.200,0.807
27.88,0.001,-0.007,-0.010,0.003,0.010,0.030,0.117,0.201,0.808
27.90,-0.009,0.003,-0.030,0.003,0.010,0.030,0.117,0.201,0.809
27.92,-0.008,0.002,-0.030,0.003,0.010,0.029,0.117,0.201,0.810
27.94,-0.007,0.002,-0.020,0.003,0.010,0.029,0.117,0.201,0.810
27.96,0.012,-0.007,-0.020,0.003,0.010,0.028,0.117,0.201,0.811
27.98,0.020,0.011,-0.030,0.003,0.010,0.028,0.117,0.202,0.812
28.00,0.010,0.001,-0.010,0.003,0.010,0.027,0.117,0.202,0.812
28.02,-0.010,0.001,-0.030,0.003,0.010,0.027,0.118,0.202,0.813
28.04,-0.009,0.001,-0.010,0.003,0.010,0.026,0.118,0.202,0.814
28.06,-0.009,0.001,-0.030,0.003,0.010,0.026,0.118,0.203,0.814
28.08,-0.009,0.001,-0.020,0.003,0.010,0.025,0.118,0.203,0.815
28.10,0.011,0.001,-0.020,0.003,0.010,0.025,0.118,0.203,0.815
28.12,0.001,0.001,-0.030,0.003,0.010,0.024,0.118,0.203,0.816
28.14,0.001,0.001,-0.030,0.003,0.010,0.024,0.118,0.204,0.817
28.16,-0.009,-0.009,-0.020,0.003,0.010,0.023,0.118,0.204,0.817
28.18,-0.008,-0.008,-0.020,0.003,0.010,0.023,0.118,0.204,0.818
28.20,-0.008,0.002,0.000,0.003,0.010,0.022,0.118,0.204,0.818
28.22,0.002,0.001,0.010,0.003,0.010,0.022,0.118,0.204,0.819
28.24,0.002,0.001,0.010,0.003,0.010,0.021,0.118,0.205,0.819
28.26,0.002,0.011,0.010,0.003,0.010,0.021,0.118,0.205,0.820
28.28,0.001,0.001,-0.010,0.003,0.010,0.021,0.118,0.205,0.820
28.30,-0.008,-0.008,0.000,0.003,0.010,0.021,0.118,0.205,0.821
28.32,-0.008,0.001,0.000,0.003,0.010,0.021,0.119,0.206,0.821
28.34,-0.007,0.010,0.010,0.003,0.010,0.020,0.119,0.206,0.822
28.36,0.003,-0.009,0.000,0.003,0.010,0.020,0.119,0.206,0.822
28.38,-0.006,-0.009,0.000,0.003,0.010,0.020,0.119,0.206,0.823
28.40,0.021,0.010,0.000,0.003,0.010,0.020,0.119,0.207,0.824
28.42,0.001,0.010,0.000,0.003,0.010,0.020,0.119,0.207,0.824
28.44,0.001,-0.009,0.010,0.003,0.010,0.020,0.119,0.207,0.824
28.46,-0.008,-0.019,0.000,0.003,0.010,0.020,0.119,0.207,0.825
28.48,0.002,0.009,0.010,0.003,0.010,0.020,0.119,0.208,0.826
28.50,0.002,-0.001,0.000,0.003,0.010,0.020,0.119,0.208,0.826
28.52,0.012,-0.020,-0.010,0.003,0.010,0.020,0.119,0.208,0.826
28.54,0.002,-0.001,0.010,0.003,0.010,0.020,0.119,0.208,0.827
28.56,0.002,-0.001,0.010,0.003,0.010,0.020,0.119,0.209,0.827
28.58,0.010,-0.001,0.010,0.003,0.010,0.020,0.119,0.209,0.828
28.60,0.001,-0.018,0.000,0.003,0.010,0.020,0.119,0.209,0.828
28.62,-0.009,0.001,0.010,0.003,0.010,0.020,0.120,0.209,0.829
28.64,-0.008,0.001,0.020,0.003,0.010,0.020,0.120,0.210,0.829
28.66,0.001,0.011,0.010,0.003,0.010,0.020,0.120,0.210,0.830
28.68,0.001,-0.008,0.000,0.003,0.010,0.020,0.120,0.210,0.830
28.70,0.011,0.012,0.010,0.003,0.010,0.020,0.120,0.210,0.830
28.72,-0.008,0.001,0.010,0.003,0.010,0.021,0.120,0.211,0.831
28.74,-0.007,-0.017,0.010,0.003,0.010,0.021,0.120,0.211,0.832
28.76,-0.007,0.002,0.010,0.003,0.010,0.021,0.120,0.211,0.832
28.78,-0.006,0.011,0.010,0.003,0.010,0.021,0.120,0.211,0.832
28.80,0.003,0.001,0.020,0.003,0.010,0.021,0.120,0.211,0.833
28.82,0.002,-0.008,0.010,0.003,0.010,0.022,0.120,0.212,0.834
28.84,0.002,-0.008,0.010,0.003,0.010,0.022,0.120,0.212,0.834
28.86,0.002,0.002,0.010,0.003,0.010,0.022,0.120,0.212,0.835
28.88,-0.007,-0.007,0.000,0.003,0.010,0.022,0.120,0.212,0.835
28.90,-0.007,-0.007,0.010,0.003,0.009,0.022,0.120,0.213,0.835
28.92,-0.006,0.012,0.020,0.002,0.009,0.023,0.120,0.213,0.836
28.94,-0.006,0.011,0.010,0.002,0.009,0.023,0.121,0.213,0.837
28.96,0.014,-0.008,0.010,0.002,0.009,0.023,0.121,0.213,0.837
28.98,0.003,0.010,0.029,0.002,0.009,0.023,0.121,0.213,0.838
29.00,-0.006,0.000,0.010,0.002,0.009,0.023,0.121,0.214,0.838
29.02,0.003,0.000,0.020,0.002,0.009,0.024,0.121,0.214,0.839
29.04,-0.006,-0.009,-0.010,0.002,0.009,0.024,0.121,0.214,0.840
29.06,-0.006,0.001,0.000,0.002,0.009,0.024,0.121,0.214,0.840
29.08,0.003,0.010,0.010,0.002,0.009,0.024,0.121,0.215,0.841
29.10,0.003,0.010,0.000,0.002,0.010,0.025,0.121,0.215,0.841
29.12,0.012,0.009,0.000,0.002,0.010,0.025,0.121,0.215,0.842
29.14,0.002,-0.009,0.000,0.002,0.010,0.025,0.121,0.215,0.843
29.16,0.002,0.000,0.000,0.002,0.010,0.025,0.121,0.216,0.843
29.18,-0.007,0.000,0.010,0.002,0.010,0.025,0.121,0.216,0.844
29.20,-0.007,0.000,-0.010,0.002,0.010,0.025,0.121,0.216,0.844
29.22,0.002,0.000,0.010,0.002,0.010,0.025,0.121,0.216,0.845
29.24,0.002,-0.009,-0.010,0.002,0.010,0.025,0.121,0.216,0.845
29.26,0.002,0.000,0.000,0.002,0.010,0.026,0.121,0.217,0.846
29.28,-0.007,-0.018,0.000,0.002,0.010,0.026,0.121,0.217,0.847
29.30,-0.007,0.002,0.000,0.002,0.010,0.026,0.122,0.217,0.847
29.32,-0.006,-0.007,0.000,0.002,0.010,0.026,0.122,0.217,0.848
29.34,0.003,0.002,0.000,0.002,0.010,0.026,0.122,0.218,0.848
29.36,0.012,0.003,0.010,0.002,0.010,0.026,0.122,0.218,0.849
29.38,0.020,0.003,-0.010,0.003,0.009,0.026,0.122,0.218,0.850
29.40,0.000,0.003,0.000,0.003,0.009,0.026,0.122,0.218,0.850
29.42,-0.008,0.003,0.010,0.003,0.009,0.026,0.122,0.218,0.851
29.44,-0.008,-0.007,0.010,0.003,0.009,0.026,0.122,0.219,0.851
29.46,-0.018,0.002,0.000,0.003,0.009,0.026,0.122,0.219,0.852
29.48,0.002,-0.016,0.010,0.003,0.009,0.026,0.122,0.219,0.853
29.50,0.021,-0.006,0.010,0.003,0.009,0.026,0.122,0.219,0.853
29.52,0.029,0.012,0.000,0.003,0.009,0.026,0.122,0.220,0.854
29.54,0.009,0.003,0.010,0.003,0.009,0.026,0.122,0.220,0.854
29.56,-0.010,-0.007,-0.010,0.003,0.009,0.026,0.122,0.220,0.855
29.58,-0.018,0.002,0.010,0.003,0.009,0.026,0.122,0.220,0.856
29.60,-0.008,0.002,0.000,0.003,0.009,0.027,0.123,0.221,0.856
29.62,0.002,0.002,0.000,0.003,0.009,0.027,0.123,0.221,0.857
29.64,0.011,-0.008,0.000,0.003,0.009,0.027,0.123,0.221,0.858
29.66,0.010,-0.007,0.000,0.003,0.009,0.027,0.123,0.221,0.858
29.68,-0.008,0.011,0.020,0.003,0.009,0.027,0.123,0.221,0.859
29.70,-0.008,0.011,0.010,0.003,0.009,0.027,0.123,0.222,0.860
29.72,-0.008,0.002,0.000,0.003,0.009,0.027,0.123,0.222,0.860
29.74,-0.008,-0.008,0.010,0.003,0.009,0.027,0.123,0.222,0.861
29.76,-0.007,-0.007,0.000,0.003,0.009,0.027,0.123,0.222,0.861
29.78,0.013,-0.007,0.010,0.003,0.009,0.027,0.123,0.222,0.862
29.80,0.020,0.002,0.000,0.003,0.009,0.027,0.123,0.223,0.863
29.82,-0.008,0.011,0.010,0.003,0.009,0.027,0.123,0.223,0.863
29.84,-0.008,0.011,0.020,0.003,0.009,0.028,0.123,0.223,0.864
29.86,-0.016,0.001,0.020,0.003,0.009,0.028,0.123,0.223,0.865
29.88,0.003,0.001,0.000,0.003,0.009,0.028,0.124,0.224,0.866
29.90,0.003,0.001,0.000,0.003,0.009,0.028,0.124,0.224,0.866
29.92,0.012,0.001,0.000,0.003,0.009,0.028,0.124,0.224,0.867
29.94,0.012,0.001,0.000,0.003,0.009,0.028,0.124,0.224,0.867
29.96,0.010,0.001,0.000,0.003,0.009,0.028,0.124,0.224,0.868
29.98,0.001,-0.009,-0.010,0.003,0.009,0.028,0.124,0.225,0.869
30.00,-0.018,0.001,0.010,0.003,0.009,0.028,0.124,0.225,0.870
30.02,-0.007,0.000,0.010,0.003,0.009,0.029,0.124,0.225,0.870
30.04,0.012,0.000,0.010,0.003,0.009,0.029,0.124,0.225,0.871
30.06,0.011,-0.008,-0.019,0.003,0.009,0.029,0.124,0.225,0.871
30.08,0.011,-0.018,-0.010,0.003,0.009,0.029,0.124,0.226,0.872
30.10,-0.009,0.011,0.000,0.003,0.009,0.029,0.124,0.226,0.873
30.12,-0.017,0.001,-0.010,0.003,0.009,0.029,0.124,0.226,0.874
30.14,-0.007,0.001,0.000,0.003,0.009,0.029,0.124,0.226,0.874
30.16,-0.006,0.001,0.000,0.003,0.009,0.029,0.125,0.227,0.875
30.18,0.003,0.001,-0.010,0.003,0.009,0.029,0.125,0.227,0.875
30.20,0.003,0.001,0.000,0.003,0.009,0.029,0.125,0.227,0.876
30.22,0.003,0.001,0.000,0.003,0.009,0.029,0.125,0.227,0.877
30.24,0.003,0.001,0.010,0.003,0.009,0.029,0.125,0.228,0.878
30.26,-0.006,0.019,0.000,0.003,0.009,0.029,0.125,0.228,0.878
30.28,-0.026,-0.001,0.000,0.003,0.009,0.029,0.125,0.228,0.879
30.30,-0.006,-0.001,0.000,0.003,0.009,0.029,0.125,0.228,0.879
30.32,0.012,-0.001,0.000,0.003,0.009,0.029,0.125,0.228,0.881
30.34,0.032,0.009,0.010,0.003,0.009,0.029,0.125,0.229,0.881
30.36,0.011,-0.019,0.000,0.003,0.009,0.029,0.125,0.229,0.882
30.38,-0.008,-0.009,0.000,0.003,0.009,0.029,0.125,0.229,0.882
30.40,-0.007,0.019,0.020,0.003,0.009,0.029,0.125,0.229,0.883
30.42,-0.017,-0.001,0.000,0.003,0.009,0.029,0.125,0.229,0.883
30.44,0.003,-0.010,-0.010,0.003,0.009,0.029,0.126,0.230,0.885
30.46,0.003,0.000,0.000,0.003,0.009,0.029,0.126,0.230,0.885
30.48,0.012,0.010,0.000,0.003,0.009,0.029,0.126,0.230,0.886
30.50,0.011,0.009,-0.010,0.003,0.009,0.029,0.126,0.230,0.886
30.52,0.011,-0.010,0.000,0.003,0.009,0.029,0.126,0.230,0.887
30.54,-0.007,0.009,0.010,0.003,0.009,0.029,0.126,0.231,0.888
30.56,-0.016,-0.000,0.000,0.003,0.009,0.029,0.126,0.231,0.889
30.58,-0.006,-0.000,-0.010,0.003,0.009,0.029,0.126,0.231,0.889
30.60,0.003,-0.018,-0.010,0.003,0.009,0.029,0.126,0.231,0.890
30.62,0.033,0.001,-0.019,0.003,0.009,0.029,0.126,0.232,0.890
30.64,0.011,0.011,0.010,0.004,0.009,0.029,0.126,0.232,0.891
30.66,-0.007,0.001,0.000,0.004,0.009,0.029,0.126,0.232,0.892
30.68,-0.007,0.011,-0.010,0.004,0.009,0.029,0.127,0.232,0.893
30.70,-0.016,0.001,0.000,0.004,0.009,0.029,0.127,0.232,0.893
30.72,-0.006,-0.009,0.000,0.004,0.009,0.029,0.127,0.233,0.894
30.74,0.003,0.001,-0.020,0.004,0.009,0.029,0.127,0.233,0.894
30.76,0.012,-0.017,-0.010,0.004,0.009,0.028,0.127,0.233,0.895
30.78,0.012,0.012,0.000,0.004,0.009,0.028,0.127,0.233,0.896
30.80,-0.007,-0.007,-0.010,0.004,0.009,0.028,0.127,0.234,0.897
30.82,-0.007,-0.007,-0.010,0.004,0.009,0.028,0.127,0.234,0.897
30.84,-0.006,0.003,-0.010,0.004,0.009,0.028,0.127,0.234,0.898
30.86,-0.006,-0.006,-0.020,0.004,0.009,0.028,0.127,0.234,0.899
30.88,0.004,-0.006,0.010,0.004,0.009,0.028,0.127,0.234,0.899
30.90,0.012,0.003,-0.010,0.004,0.009,0.028,0.128,0.235,0.900
30.92,0.003,-0.007,-0.010,0.004,0.009,0.027,0.128,0.235,0.901
30.94,0.002,0.003,-0.010,0.004,0.009,0.027,0.128,0.235,0.901
30.96,-0.007,-0.006,0.000,0.004,0.009,0.027,0.128,0.235,0.902
30.98,-0.007,-0.006,-0.020,0.004,0.009,0.027,0.128,0.236,0.903
31.00,-0.006,0.003,-0.010,0.004,0.009,0.027,0.128,0.236,0.903
31.02,0.004,0.003,-0.010,0.004,0.009,0.027,0.128,0.236,0.904
31.04,0.012,0.003,-0.010,0.004,0.009,0.026,0.128,0.236,0.904
31.06,0.002,0.012,-0.020,0.004,0.008,0.026,0.128,0.236,0.905
31.08,-0.007,-0.008,-0.010,0.004,0.008,0.026,0.128,0.237,0.906
31.10,-0.007,0.002,-0.020,0.004,0.008,0.026,0.129,0.237,0.906
31.12,-0.007,0.002,0.000,0.004,0.008,0.025,0.129,0.237,0.907
31.14,0.003,0.001,-0.010,0.004,0.008,0.025,0.129,0.237,0.907
31.16,0.020,0.001,-0.010,0.004,0.008,0.025,0.129,0.237,0.908
31.18,0.010,0.011,-0.010,0.004,0.009,0.025,0.129,0.238,0.909
31.20,0.001,0.010,-0.010,0.004,0.009,0.024,0.129,0.238,0.909
31.22,-0.009,0.010,-0.010,0.004,0.009,0.024,0.129,0.238,0.910
31.24,-0.008,-0.009,-0.019,0.004,0.009,0.024,0.129,0.238,0.910
31.26,-0.008,-0.009,0.000,0.004,0.009,0.024,0.129,0.238,0.911
31.28,0.012,0.001,-0.010,0.004,0.009,0.023,0.129,0.239,0.912
31.30,0.011,0.001,-0.010,0.004,0.009,0.023,0.130,0.239,0.912
31.32,0.011,0.001,0.000,0.004,0.009,0.023,0.130,0.239,0.913
31.34,-0.008,0.001,-0.010,0.004,0.009,0.023,0.130,0.239,0.913
31.36,-0.008,0.001,-0.010,0.004,0.009,0.023,0.130,0.239,0.914
31.38,-0.007,0.001,-0.010,0.004,0.009,0.023,0.130,0.240,0.915
31.40,-0.007,0.010,0.000,0.004,0.009,0.022,0.130,0.240,0.915
31.42,0.013,0.010,0.000,0.004,0.009,0.022,0.130,0.240,0.915
31.44,0.003,-0.000,0.000,0.004,0.009,0.022,0.130,0.240,0.916
31.46,0.013,-0.000,0.010,0.004,0.009,0.022,0.130,0.240,0.916
31.48,-0.007,0.000,0.010,0.004,0.009,0.022,0.131,0.241,0.917
31.50,-0.006,0.000,0.000,0.004,0.009,0.022,0.131,0.241,0.918
31.52,-0.006,-0.010,0.000,0.004,0.009,0.022,0.131,0.241,0.918
31.54,-0.006,-0.009,0.010,0.004,0.009,0.022,0.131,0.241,0.919
31.56,0.023,0.001,-0.000,0.004,0.009,0.022,0.131,0.241,0.919
31.58,0.003,-0.008,-0.000,0.004,0.009,0.022,0.131,0.242,0.920
31.60,0.011,0.001,-0.010,0.005,0.009,0.022,0.131,0.242,0.920
31.62,-0.008,0.011,0.009,0.005,0.009,0.022,0.131,0.242,0.921
31.64,-0.007,0.001,0.009,0.005,0.009,0.022,0.131,0.242,0.921
31.66,-0.007,-0.008,0.009,0.005,0.009,0.022,0.132,0.243,0.922
31.68,0.013,0.012,0.009,0.005,0.009,0.022,0.132,0.243,0.922
31.70,0.012,0.002,0.009,0.005,0.009,0.022,0.132,0.243,0.923
31.72,0.012,-0.008,0.019,0.005,0.009,0.022,0.132,0.243,0.923
31.74,0.002,0.002,0.009,0.005,0.009,0.022,0.132,0.243,0.924
31.76,-0.008,0.011,0.019,0.005,0.009,0.022,0.132,0.244,0.924
31.78,-0.007,0.011,0.029,0.005,0.009,0.023,0.132,0.244,0.925
31.80,-0.007,0.001,0.019,0.005,0.009,0.023,0.132,0.244,0.926
31.82,0.003,0.001,0.029,0.005,0.009,0.023,0.132,0.244,0.926
31.84,0.003,0.010,0.049,0.005,0.009,0.023,0.132,0.245,0.926
31.86,0.003,0.000,0.058,0.005,0.009,0.024,0.133,0.245,0.927
31.88,0.003,0.010,0.058,0.005,0.010,0.025,0.133,0.245,0.928
31.90,-0.006,0.009,0.068,0.005,0.010,0.025,0.133,0.245,0.928
31.92,-0.006,0.009,0.078,0.005,0.010,0.026,0.133,0.246,0.929
31.94,-0.006,-0.000,0.078,0.005,0.010,0.027,0.133,0.246,0.929
31.96,-0.006,0.009,0.078,0.005,0.010,0.028,0.133,0.246,0.930
31.98,0.013,0.009,0.078,0.005,0.010,0.030,0.133,0.246,0.931
32.00,0.012,0.008,0.068,0.005,0.010,0.031,0.133,0.247,0.932
32.02,0.012,0.008,0.088,0.005,0.010,0.032,0.134,0.247,0.932
32.04,0.002,0.007,0.088,0.005,0.010,0.033,0.134,0.247,0.933
32.06,-0.008,0.007,0.078,0.005,0.011,0.034,0.134,0.247,0.934
32.08,-0.007,0.008,0.098,0.005,0.011,0.037,0.134,0.248,0.935
32.10,0.011,-0.002,0.088,0.005,0.011,0.038,0.134,0.248,0.936
32.12,0.011,0.008,0.088,0.005,0.011,0.040,0.134,0.248,0.937
32.14,0.001,0.016,0.088,0.005,0.011,0.041,0.134,0.248,0.937
32.16,-0.008,0.026,0.098,0.005,0.011,0.043,0.134,0.248,0.938
32.18,-0.007,-0.014,0.098,0.005,0.012,0.046,0.135,0.249,0.940
32.20,-0.007,-0.021,0.088,0.005,0.012,0.047,0.135,0.249,0.941
32.22,-0.007,0.008,0.078,0.005,0.012,0.049,0.135,0.249,0.942
32.24,0.003,0.007,0.098,0.005,0.012,0.050,0.135,0.250,0.943
32.26,0.003,0.007,0.088,0.005,0.012,0.052,0.135,0.250,0.944
32.28,-0.007,-0.001,0.078,0.005,0.012,0.055,0.135,0.250,0.946
32.30,-0.006,-0.001,0.078,0.005,0.012,0.057,0.135,0.251,0.947
32.32,-0.006,0.008,0.078,0.005,0.012,0.059,0.135,0.251,0.948
32.34,-0.006,-0.001,0.088,0.005,0.012,0.060,0.135,0.251,0.950
32.36,0.004,-0.011,0.068,0.005,0.012,0.062,0.136,0.251,0.951
32.38,0.022,-0.001,-0.000,0.005,0.012,0.065,0.136,0.252,0.953
32.40,0.011,-0.001,-0.000,0.005,0.012,0.066,0.136,0.252,0.955
32.42,0.001,0.008,-0.000,0.005,0.012,0.068,0.136,0.252,0.956
32.44,0.001,0.008,0.009,0.005,0.012,0.069,0.136,0.253,0.957
32.46,-0.009,0.008,-0.000,0.005,0.012,0.070,0.136,0.253,0.959
32.48,-0.008,0.007,0.009,0.005,0.012,0.072,0.136,0.253,0.962
32.50,0.002,-0.002,-0.000,0.005,0.013,0.072,0.136,0.254,0.963
32.52,0.002,-0.002,-0.000,0.005,0.013,0.073,0.137,0.254,0.964
32.54,0.020,-0.002,-0.020,0.005,0.013,0.074,0.137,0.254,0.967
32.56,-0.008,0.007,-0.010,0.005,0.013,0.075,0.137,0.255,0.969
32.58,-0.008,0.007,-0.000,0.005,0.013,0.075,0.137,0.255,0.970
32.60,-0.017,0.006,-0.010,0.005,0.013,0.075,0.137,0.255,0.972
32.62,-0.006,-0.003,-0.020,0.005,0.013,0.076,0.137,0.256,0.975
32.64,0.013,0.007,-0.010,0.005,0.013,0.076,0.137,0.256,0.976
32.66,0.012,-0.003,-0.010,0.005,0.013,0.076,0.137,0.256,0.978
32.68,0.012,-0.003,-0.010,0.005,0.013,0.076,0.138,0.256,0.980
32.70,0.002,-0.003,-0.020,0.005,0.013,0.076,0.138,0.257,0.981
32.72,-0.007,-0.011,-0.010,0.005,0.013,0.076,0.138,0.257,0.984
32.74,-0.007,-0.002,-0.010,0.005,0.013,0.076,0.138,0.257,0.986
32.76,0.002,-0.010,-0.010,0.005,0.013,0.076,0.138,0.258,0.987
32.78,-0.007,-0.001,-0.020,0.005,0.013,0.076,0.138,0.258,0.989
32.80,0.002,0.008,-0.010,0.005,0.013,0.076,0.138,0.258,0.990
32.82,0.002,0.008,-0.030,0.005,0.013,0.076,0.138,0.259,0.993
32.84,-0.008,0.017,-0.010,0.005,0.013,0.076,0.139,0.259,0.995
32.86,-0.007,-0.011,-0.010,0.005,0.013,0.076,0.139,0.259,0.996
32.88,-0.007,-0.001,-0.030,0.005,0.013,0.075,0.139,0.259,0.998
32.90,-0.006,-0.001,-0.030,0.005,0.013,0.075,0.139,0.260,0.999
32.92,0.003,-0.001,-0.030,0.005,0.013,0.075,0.139,0.260,1.002
32.94,-0.007,0.009,-0.030,0.005,0.013,0.074,0.139,0.261,1.004
32.96,0.012,-0.001,-0.030,0.005,0.013,0.074,0.139,0.261,1.005
32.98,-0.008,-0.001,-0.039,0.005,0.013,0.074,0.139,0.261,1.007
33.00,-0.007,0.008,-0.030,0.005,0.013,0.073,0.140,0.261,1.008
33.02,-0.007,-0.002,-0.030,0.005,0.013,0.072,0.140,0.262,1.011
33.04,-0.007,-0.011,-0.030,0.005,0.013,0.072,0.140,0.262,1.013
33.06,0.003,0.007,-0.030,0.005,0.013,0.071,0.140,0.262,1.014
33.08,0.003,0.017,-0.030,0.005,0.013,0.071,0.140,0.263,1.015
33.10,-0.006,0.007,-0.030,0.005,0.014,0.070,0.140,0.263,1.017
33.12,0.003,-0.012,-0.039,0.005,0.014,0.069,0.140,0.263,1.020
33.14,-0.007,-0.002,-0.049,0.005,0.014,0.069,0.140,0.264,1.021
33.16,-0.006,-0.002,-0.049,0.005,0.014,0.068,0.141,0.264,1.022
33.18,0.004,-0.002,-0.039,0.005,0.014,0.067,0.141,0.264,1.024
33.20,-0.006,-0.002,-0.049,0.005,0.014,0.067,0.141,0.265,1.025
33.22,-0.005,0.008,0.020,0.004,0.014,0.066,0.141,0.265,1.028
33.24,-0.005,-0.002,0.010,0.004,0.014,0.065,0.141,0.265,1.029
33.26,-0.004,-0.002,0.000,0.004,0.014,0.065,0.141,0.266,1.030
33.28,0.005,-0.012,0.000,0.004,0.014,0.064,0.141,0.266,1.032
33.30,0.005,0.007,0.000,0.004,0.014,0.064,0.141,0.266,1.033
33.32,0.013,-0.011,0.000,0.004,0.014,0.063,0.141,0.267,1.035
33.34,-0.006,-0.001,-0.010,0.004,0.014,0.063,0.141,0.267,1.037
33.36,-0.005,0.016,0.000,0.004,0.014,0.063,0.142,0.267,1.038
33.38,-0.005,-0.013,0.000,0.004,0.014,0.063,0.142,0.268,1.039
33.40,-0.005,-0.012,0.000,0.004,0.014,0.062,0.142,0.268,1.040
33.42,-0.005,-0.012,-0.010,0.004,0.014,0.062,0.142,0.268,1.042
33.44,0.004,0.017,-0.010,0.004,0.013,0.062,0.142,0.269,1.044
33.46,0.022,-0.002,0.000,0.004,0.013,0.062,0.142,0.269,1.045
33.48,0.012,-0.012,-0.010,0.004,0.013,0.062,0.142,0.269,1.047
33.50,0.002,-0.002,-0.010,0.004,0.013,0.062,0.142,0.269,1.048
33.52,-0.008,0.008,-0.010,0.004,0.013,0.061,0.142,0.270,1.049
33.54,-0.007,-0.002,-0.010,0.004,0.013,0.061,0.142,0.270,1.050
33.56,0.002,-0.011,-0.010,0.004,0.013,0.061,0.143,0.271,1.053
33.58,-0.007,0.009,-0.010,0.004,0.013,0.061,0.143,0.271,1.054
33.60,0.002,-0.001,-0.020,0.004,0.013,0.061,0.143,0.271,1.055
33.62,0.002,-0.011,-0.029,0.004,0.013,0.060,0.143,0.271,1.056
33.64,-0.007,-0.001,-0.039,0.004,0.013,0.060,0.143,0.272,1.058
33.66,-0.006,-0.001,0.000,0.004,0.013,0.059,0.143,0.272,1.060
33.68,-0.006,0.038,0.000,0.004,0.013,0.059,0.143,0.272,1.061
33.70,-0.006,0.017,-0.029,0.004,0.013,0.059,0.143,0.273,1.062
33.72,0.004,-0.032,-0.029,0.004,0.013,0.059,0.143,0.273,1.064
33.74,0.004,-0.020,-0.029,0.004,0.013,0.058,0.143,0.273,1.065
33.76,0.012,0.035,-0.010,0.004,0.013,0.058,0.144,0.274,1.067
33.78,0.012,0.016,-0.010,0.004,0.013,0.057,0.144,0.274,1.068
33.80,-0.007,-0.048,-0.039,0.004,0.013,0.057,0.144,0.274,1.069
33.82,0.003,0.001,-0.029,0.004,0.013,0.057,0.144,0.274,1.071
33.84,-0.006,0.036,-0.020,0.004,0.013,0.056,0.144,0.275,1.072
33.86,0.003,-0.020,-0.039,0.004,0.013,0.056,0.144,0.275,1.074
33.88,-0.006,-0.030,-0.039,0.004,0.013,0.055,0.144,0.276,1.075
33.90,0.003,0.008,-0.020,0.004,0.013,0.055,0.144,0.276,1.076
33.92,0.022,0.037,-0.010,0.004,0.013,0.054,0.144,0.276,1.077
33.94,-0.006,-0.002,-0.029,0.004,0.013,0.054,0.144,0.276,1.078
33.96,0.003,-0.019,-0.039,0.004,0.013,0.053,0.145,0.277,1.080
33.98,-0.007,0.000,-0.010,0.004,0.013,0.052,0.145,0.277,1.081
34.00,-0.006,0.018,-0.010,0.004,0.013,0.052,0.145,0.277,1.083
34.02,-0.006,0.008,-0.029,0.004,0.013,0.052,0.145,0.278,1.084
34.04,0.003,-0.019,-0.049,0.004,0.013,0.051,0.145,0.278,1.085
34.06,0.004,-0.019,0.000,0.004,0.013,0.051,0.145,0.278,1.086
34.08,0.012,-0.002,0.010,0.004,0.013,0.050,0.145,0.279,1.088
34.10,-0.007,-0.020,0.000,0.004,0.013,0.050,0.145,0.279,1.089
34.12,-0.017,0.010,0.010,0.004,0.013,0.049,0.145,0.279,1.090
34.14,-0.025,-0.000,0.000,0.004,0.013,0.049,0.145,0.280,1.091
34.16,-0.015,0.019,-0.010,0.004,0.013,0.049,0.146,0.280,1.092
34.18,0.024,-0.017,-0.020,0.004,0.013,0.048,0.146,0.280,1.093
34.20,0.040,0.002,0.010,0.004,0.013,0.048,0.146,0.281,1.094
34.22,0.010,0.041,0.029,0.004,0.013,0.048,0.146,0.281,1.095
34.24,0.000,0.011,0.020,0.004,0.013,0.048,0.146,0.281,1.096
34.26,-0.009,-0.009,-0.020,0.004,0.013,0.048,0.146,0.281,1.097
34.28,-0.018,-0.009,0.000,0.004,0.013,0.047,0.146,0.282,1.099
34.30,-0.008,0.028,0.010,0.004,0.013,0.047,0.146,0.282,1.100
34.32,0.002,-0.002,0.010,0.004,0.013,0.047,0.146,0.282,1.101
34.34,0.002,-0.028,0.000,0.004,0.013,0.047,0.147,0.283,1.102
34.36,0.021,-0.009,-0.010,0.004,0.013,0.047,0.147,0.283,1.103
34.38,-0.010,-0.019,0.020,0.005,0.013,0.047,0.147,0.284,1.105
34.40,-0.009,0.018,0.029,0.005,0.013,0.047,0.147,0.284,1.106
34.42,-0.038,0.018,0.000,0.005,0.013,0.047,0.147,0.284,1.107
34.44,-0.008,-0.019,0.000,0.005,0.013,0.047,0.147,0.284,1.108
34.46,0.021,-0.009,-0.010,0.004,0.013,0.047,0.147,0.285,1.109
34.48,0.010,0.012,0.010,0.004,0.013,0.047,0.147,0.285,1.111
34.50,0.009,0.029,0.020,0.005,0.013,0.047,0.147,0.285,1.111
34.52,-0.011,-0.001,0.010,0.005,0.013,0.047,0.148,0.286,1.112
34.54,-0.010,-0.019,0.000,0.005,0.013,0.047,0.148,0.286,1.113
34.56,-0.010,0.001,0.000,0.005,0.013,0.047,0.148,0.286,1.114
34.58,-0.009,0.000,0.000,0.005,0.013,0.048,0.148,0.287,1.116
34.60,-0.008,-0.009,0.000,0.004,0.013,0.048,0.148,0.287,1.117
34.62,0.002,-0.009,-0.010,0.004,0.013,0.048,0.148,0.287,1.118
34.64,0.010,0.019,0.010,0.004,0.013,0.048,0.148,0.288,1.119
34.66,0.001,0.019,0.020,0.004,0.013,0.048,0.148,0.288,1.120
34.68,-0.028,-0.019,-0.010,0.004,0.013,0.048,0.148,0.288,1.122
34.70,-0.008,0.001,0.010,0.004,0.013,0.048,0.148,0.289,1.123
34.72,0.002,0.030,0.010,0.004,0.013,0.048,0.149,0.289,1.124
34.74,0.011,0.019,-0.020,0.004,0.013,0.048,0.149,0.289,1.125
34.76,0.011,-0.030,-0.010,0.004,0.013,0.048,0.149,0.289,1.126
34.78,-0.002,0.020,0.020,0.004,0.013,0.048,0.149,0.290,1.128
34.80,-0.010,0.009,0.010,0.004,0.013,0.048,0.149,0.290,1.129
34.82,-0.000,-0.011,-0.010,0.004,0.013,0.048,0.149,0.290,1.130
34.84,0.008,-0.028,-0.020,0.004,0.013,0.048,0.149,0.291,1.131
34.86,-0.011,-0.018,0.000,0.004,0.013,0.048,0.149,0.291,1.132
34.88,-0.010,-0.021,0.000,0.004,0.013,0.048,0.149,0.292,1.133
34.90,-0.009,-0.037,-0.029,0.004,0.013,0.048,0.149,0.292,1.134
34.92,0.010,0.002,-0.019,0.004,0.013,0.048,0.150,0.292,1.135
34.94,0.000,0.019,0.000,0.004,0.013,0.048,0.150,0.292,1.136
34.96,-0.009,0.019,0.000,0.004,0.013,0.048,0.150,0.293,1.137
34.98,0.000,-0.019,-0.019,0.004,0.013,0.048,0.150,0.293,1.139
35.00,-0.009,0.010,0.000,0.004,0.013,0.048,0.150,0.293,1.140
35.02,0.001,0.029,0.010,0.004,0.013,0.047,0.150,0.294,1.141
35.04,0.001,-0.000,-0.019,0.004,0.013,0.047,0.150,0.294,1.142
35.06,-0.009,-0.030,-0.019,0.004,0.013,0.047,0.150,0.294,1.143
35.08,0.002,0.002,0.000,0.003,0.013,0.047,0.150,0.295,1.145
35.10,0.002,0.028,0.010,0.003,0.013,0.047,0.150,0.295,1.146
35.12,-0.008,0.009,-0.010,0.003,0.013,0.047,0.150,0.295,1.147
35.14,-0.007,-0.028,-0.019,0.003,0.013,0.047,0.150,0.295,1.148
35.16,-0.007,0.011,0.000,0.003,0.013,0.046,0.151,0.296,1.149
35.18,0.003,-0.020,-0.010,0.003,0.013,0.046,0.151,0.296,1.151
35.20,-0.006,-0.009,-0.029,0.003,0.013,0.046,0.151,0.296,1.151
35.22,0.003,0.000,-0.019,0.003,0.013,0.046,0.151,0.297,1.152
35.24,0.003,-0.008,0.000,0.003,0.013,0.046,0.151,0.297,1.153
35.26,0.013,0.011,-0.010,0.003,0.013,0.045,0.151,0.297,1.154
35.28,0.003,-0.008,-0.029,0.003,0.013,0.045,0.151,0.297,1.155
35.30,0.012,0.002,-0.010,0.003,0.013,0.045,0.151,0.298,1.157
35.32,0.002,0.012,0.000,0.003,0.013,0.045,0.151,0.298,1.158
35.34,0.002,-0.016,-0.019,0.003,0.012,0.044,0.151,0.298,1.159
35.36,-0.008,0.003,-0.029,0.003,0.012,0.044,0.151,0.299,1.160
35.38,0.001,-0.006,-0.010,0.003,0.012,0.044,0.151,0.299,1.160
35.40,0.001,0.021,0.000,0.003,0.012,0.043,0.151,0.299,1.162
35.42,-0.008,-0.027,-0.029,0.003,0.012,0.043,0.151,0.300,1.163
35.44,-0.008,-0.007,-0.010,0.003,0.012,0.043,0.152,0.300,1.164
35.46,-0.008,-0.007,-0.029,0.003,0.012,0.043,0.152,0.300,1.165
35.48,-0.007,0.002,-0.010,0.003,0.012,0.042,0.152,0.300,1.166
35.50,0.011,0.002,-0.019,0.003,0.012,0.042,0.152,0.301,1.167
35.52,0.021,-0.008,-0.010,0.003,0.012,0.041,0.152,0.301,1.168
35.54,0.001,0.011,-0.019,0.003,0.012,0.041,0.152,0.301,1.169
35.56,-0.008,0.011,0.000,0.003,0.012,0.041,0.152,0.302,1.170
35.58,-0.008,-0.008,-0.019,0.003,0.012,0.041,0.152,0.302,1.171
35.60,-0.016,0.002,-0.019,0.003,0.012,0.040,0.152,0.302,1.172
35.62,-0.006,-0.018,-0.010,0.003,0.012,0.040,0.152,0.303,1.173
35.64,0.021,0.002,-0.029,0.003,0.012,0.039,0.152,0.303,1.174
35.66,0.021,-0.028,-0.029,0.003,0.012,0.039,0.152,0.303,1.175
35.68,0.019,-0.016,-0.029,0.003,0.012,0.039,0.152,0.303,1.175
35.70,-0.010,0.013,-0.019,0.003,0.012,0.038,0.152,0.304,1.176
35.72,-0.028,-0.006,0.000,0.003,0.011,0.038,0.152,0.304,1.178
35.74,-0.007,0.012,0.000,0.003,0.011,0.038,0.153,0.304,1.178
35.76,-0.007,-0.017,0.000,0.003,0.011,0.037,0.153,0.304,1.179
35.78,0.002,0.002,0.010,0.003,0.011,0.037,0.153,0.305,1.180
35.80,0.022,0.032,0.010,0.003,0.011,0.037,0.153,0.305,1.181
35.82,0.011,-0.017,-0.019,0.003,0.011,0.037,0.153,0.305,1.182
35.84,-0.008,-0.006,0.020,0.003,0.011,0.036,0.153,0.306,1.183
35.86,-0.037,0.003,-0.009,0.003,0.011,0.036,0.153,0.306,1.184
35.88,-0.025,0.012,0.010,0.002,0.011,0.036,0.153,0.306,1.184
35.90,-0.005,0.002,0.010,0.002,0.011,0.036,0.153,0.306,1.185
35.92,-0.005,-0.007,0.000,0.002,0.011,0.036,0.153,0.306,1.186
35.94,0.022,0.012,0.000,0.002,0.011,0.036,0.153,0.307,1.187
35.96,0.022,-0.018,0.000,0.002,0.011,0.036,0.153,0.307,1.188
35.98,-0.006,-0.007,0.000,0.002,0.011,0.036,0.153,0.307,1.189
36.00,-0.026,-0.007,0.010,0.002,0.011,0.036,0.153,0.308,1.189
36.02,-0.005,0.002,0.000,0.002,0.011,0.036,0.153,0.308,1.191
36.04,0.004,-0.034,-0.029,0.002,0.011,0.036,0.153,0.308,1.191
36.06,0.024,-0.005,0.000,0.002,0.011,0.036,0.153,0.308,1.192
36.08,0.013,0.004,-0.009,0.002,0.011,0.036,0.153,0.309,1.193
36.10,0.013,0.004,0.010,0.002,0.011,0.036,0.154,0.309,1.194
36.12,-0.008,-0.006,0.000,0.002,0.011,0.036,0.154,0.309,1.195
36.14,-0.007,-0.005,0.010,0.002,0.011,0.036,0.154,0.309,1.196
36.16,-0.007,-0.005,0.000,0.002,0.011,0.036,0.154,0.310,1.197
36.18,-0.006,-0.005,0.010,0.002,0.011,0.036,0.154,0.310,1.197
36.20,0.003,-0.015,-0.019,0.002,0.010,0.036,0.154,0.310,1.198
36.22,0.021,0.004,-0.009,0.002,0.010,0.036,0.154,0.310,1.199
36.24,0.001,0.013,0.000,0.002,0.010,0.036,0.154,0.311,1.200
36.26,0.001,0.003,0.010,0.003,0.010,0.036,0.154,0.311,1.201
36.28,-0.017,-0.006,-0.009,0.003,0.010,0.036,0.154,0.311,1.202
36.30,-0.017,-0.006,0.000,0.003,0.010,0.036,0.154,0.311,1.202
36.32,-0.006,0.003,0.010,0.003,0.010,0.036,0.154,0.312,1.203
36.34,0.012,-0.006,0.000,0.003,0.010,0.036,0.154,0.312,1.205
36.36,0.002,-0.015,0.000,0.003,0.010,0.036,0.154,0.312,1.205
36.38,0.011,-0.014,0.000,0.003,0.010,0.036,0.154,0.312,1.206
36.40,-0.009,0.015,0.020,0.003,0.010,0.037,0.154,0.313,1.207
36.42,-0.008,0.032,0.000,0.003,0.010,0.037,0.154,0.313,1.207
36.44,-0.007,-0.016,0.000,0.003,0.011,0.037,0.155,0.313,1.209
36.46,0.003,-0.006,0.000,0.002,0.010,0.037,0.155,0.313,1.210
36.48,0.011,0.003,0.010,0.002,0.010,0.037,0.155,0.314,1.210
36.50,0.011,-0.006,-0.009,0.002,0.010,0.037,0.155,0.314,1.211
36.52,0.001,-0.006,0.000,0.002,0.010,0.037,0.155,0.314,1.212
36.54,-0.008,0.013,0.020,0.003,0.010,0.037,0.155,0.314,1.213
36.56,-0.008,0.003,0.000,0.003,0.010,0.037,0.155,0.315,1.214
36.58,-0.007,0.002,-0.029,0.003,0.010,0.037,0.155,0.315,1.215
36.60,-0.007,0.002,-0.020,0.002,0.010,0.037,0.155,0.315,1.216
36.62,-0.007,0.002,-0.020,0.002,0.010,0.037,0.155,0.315,1.216
36.64,0.013,0.002,-0.020,0.002,0.010,0.037,0.155,0.316,1.217
36.66,0.001,-0.008,-0.029,0.002,0.010,0.037,0.155,0.316,1.218
36.68,-0.008,0.002,-0.010,0.002,0.010,0.036,0.155,0.316,1.219
36.70,-0.008,0.012,0.000,0.002,0.010,0.036,0.155,0.316,1.220
36.72,-0.007,-0.007,-0.020,0.002,0.010,0.036,0.155,0.317,1.221
36.74,0.011,0.002,-0.010,0.002,0.010,0.036,0.155,0.317,1.222
36.76,-0.008,-0.017,0.000,0.002,0.010,0.036,0.155,0.317,1.223
36.78,0.001,0.002,0.020,0.002,0.010,0.035,0.156,0.317,1.224
36.80,-0.008,-0.007,0.000,0.002,0.010,0.035,0.156,0.318,1.225
36.82,0.002,0.022,0.020,0.002,0.010,0.035,0.156,0.318,1.226
36.84,0.011,-0.015,-0.010,0.003,0.010,0.035,0.156,0.318,1.226
36.86,0.011,0.043,0.010,0.003,0.010,0.035,0.156,0.318,1.227
36.88,0.002,-0.013,-0.010,0.003,0.010,0.035,0.156,0.319,1.228
36.90,-0.007,0.006,-0.049,0.003,0.010,0.035,0.156,0.319,1.229
36.92,-0.007,0.016,-0.020,0.003,0.010,0.034,0.156,0.319,1.230
36.94,0.011,0.005,-0.020,0.003,0.010,0.034,0.156,0.319,1.231
36.96,0.011,-0.014,-0.020,0.003,0.010,0.034,0.156,0.320,1.231
36.98,0.031,0.036,-0.010,0.003,0.010,0.033,0.156,0.320,1.233
37.00,0.010,0.006,0.000,0.003,0.010,0.033,0.156,0.320,1.233
37.02,-0.019,-0.033,-0.020,0.003,0.010,0.033,0.156,0.320,1.234
37.04,-0.009,0.014,0.000,0.003,0.010,0.033,0.156,0.321,1.235
37.06,-0.018,0.005,-0.039,0.003,0.010,0.033,0.156,0.321,1.235
37.08,0.003,0.004,0.000,0.003,0.010,0.032,0.157,0.321,1.236
37.10,0.011,-0.014,0.010,0.003,0.010,0.032,0.157,0.321,1.237
37.12,0.011,-0.024,-0.029,0.003,0.010,0.032,0.157,0.322,1.238
37.14,0.019,0.032,0.020,0.003,0.010,0.032,0.157,0.322,1.238
37.16,0.010,-0.007,-0.020,0.003,0.010,0.031,0.157,0.322,1.239
37.18,-0.009,-0.007,0.000,0.003,0.010,0.031,0.157,0.322,1.240
37.20,-0.008,-0.024,-0.029,0.003,0.010,0.031,0.157,0.323,1.241
37.22,0.001,-0.004,-0.020,0.003,0.010,0.031,0.157,0.323,1.242
37.24,0.001,0.005,-0.020,0.003,0.010,0.031,0.157,0.323,1.242
37.26,0.011,-0.015,-0.020,0.003,0.010,0.030,0.157,0.323,1.243
37.28,0.010,0.013,-0.010,0.003,0.010,0.030,0.157,0.323,1.243
37.30,-0.009,-0.014,0.000,0.003,0.010,0.030,0.157,0.324,1.245
37.32,-0.009,-0.005,-0.020,0.003,0.010,0.030,0.157,0.324,1.245
37.34,-0.008,0.022,0.000,0.003,0.010,0.030,0.157,0.324,1.246
37.36,-0.027,-0.007,0.000,0.003,0.010,0.029,0.158,0.324,1.246
37.38,0.011,0.003,-0.010,0.003,0.010,0.029,0.158,0.325,1.247
37.40,0.010,-0.015,-0.000,0.003,0.010,0.029,0.158,0.325,1.248
37.42,0.020,-0.015,-0.010,0.003,0.010,0.029,0.158,0.325,1.249
37.44,0.009,0.013,-0.010,0.003,0.010,0.029,0.158,0.325,1.249
37.46,-0.040,0.003,0.009,0.004,0.010,0.029,0.158,0.326,1.250
37.48,-0.010,0.030,0.019,0.004,0.010,0.029,0.158,0.326,1.250
37.50,0.000,-0.019,-0.000,0.003,0.010,0.028,0.158,0.326,1.251
37.52,0.020,0.042,0.009,0.003,0.010,0.028,0.158,0.326,1.252
37.54,-0.009,-0.015,0.009,0.003,0.011,0.028,0.158,0.327,1.253
37.56,-0.009,-0.015,-0.000,0.003,0.011,0.028,0.158,0.327,1.253
37.58,0.001,0.004,0.009,0.003,0.011,0.028,0.158,0.327,1.254
37.60,-0.009,-0.006,-0.000,0.003,0.010,0.028,0.158,0.327,1.254
37.62,-0.008,0.043,0.009,0.003,0.011,0.028,0.159,0.328,1.255
37.64,-0.007,-0.024,-0.010,0.003,0.011,0.028,0.159,0.328,1.256
37.66,0.002,-0.014,-0.020,0.003,0.011,0.028,0.159,0.328,1.257
37.68,0.011,0.032,0.009,0.003,0.011,0.028,0.159,0.328,1.257
37.70,0.011,0.012,-0.000,0.003,0.011,0.028,0.159,0.329,1.258
37.72,-0.009,-0.006,-0.000,0.003,0.011,0.028,0.159,0.329,1.259
37.74,-0.017,-0.015,-0.000,0.003,0.011,0.028,0.159,0.329,1.259
37.76,0.003,0.024,0.009,0.003,0.011,0.028,0.159,0.329,1.260
37.78,0.002,0.022,-0.000,0.003,0.011,0.028,0.159,0.330,1.261
37.80,0.002,-0.036,-0.010,0.003,0.011,0.028,0.159,0.330,1.261
37.82,0.011,0.004,-0.000,0.003,0.011,0.028,0.159,0.330,1.262
37.84,-0.008,0.013,-0.000,0.003,0.011,0.028,0.159,0.331,1.263
37.86,-0.008,0.003,0.009,0.003,0.011,0.028,0.160,0.331,1.263
37.88,-0.007,-0.006,-0.000,0.003,0.011,0.028,0.160,0.331,1.264
37.90,0.003,-0.006,-0.010,0.003,0.011,0.028,0.160,0.331,1.265
37.92,0.002,-0.007,-0.010,0.003,0.011,0.028,0.160,0.332,1.266
37.94,0.002,-0.015,-0.000,0.003,0.011,0.028,0.160,0.332,1.266
37.96,-0.008,0.004,-0.000,0.003,0.011,0.028,0.160,0.332,1.267
37.98,-0.007,0.013,-0.000,0.003,0.011,0.028,0.160,0.332,1.267
38.00,-0.007,0.003,-0.000,0.003,0.011,0.028,0.160,0.332,1.268
38.02,-0.007,0.003,-0.000,0.003,0.011,0.028,0.160,0.333,1.268
38.04,0.003,0.021,-0.000,0.003,0.011,0.028,0.160,0.333,1.270
38.06,0.003,0.011,-0.000,0.003,0.011,0.028,0.160,0.333,1.270
38.08,0.020,-0.008,-0.010,0.003,0.011,0.028,0.160,0.334,1.271
38.10,-0.009,0.002,-0.010,0.003,0.011,0.028,0.160,0.334,1.271
38.12,-0.008,-0.007,0.029,0.003,0.011,0.028,0.160,0.334,1.272
38.14,-0.007,0.029,0.019,0.003,0.011,0.028,0.161,0.334,1.273
38.16,0.002,-0.039,-0.010,0.003,0.011,0.028,0.161,0.335,1.273
38.18,0.020,-0.027,-0.020,0.003,0.011,0.028,0.161,0.335,1.274
38.20,0.030,0.002,-0.010,0.003,0.011,0.028,0.161,0.335,1.275
38.22,-0.009,0.011,0.019,0.003,0.011,0.028,0.161,0.335,1.275
38.24,-0.008,-0.018,0.000,0.003,0.011,0.028,0.161,0.336,1.276
38.26,-0.027,0.002,0.010,0.003,0.011,0.028,0.161,0.336,1.277
38.28,0.011,0.020,0.020,0.003,0.011,0.028,0.161,0.336,1.277
38.30,0.011,-0.009,0.000,0.003,0.011,0.028,0.161,0.336,1.278
38.32,-0.008,-0.036,0.000,0.003,0.011,0.028,0.161,0.337,1.278
38.34,0.012,-0.006,-0.010,0.003,0.010,0.028,0.161,0.337,1.279
38.36,0.011,0.012,0.010,0.003,0.010,0.028,0.161,0.337,1.280
38.38,-0.008,-0.007,0.000,0.003,0.010,0.028,0.161,0.337,1.281
38.40,-0.008,-0.016,0.000,0.003,0.010,0.028,0.161,0.338,1.281
38.42,-0.007,-0.006,0.000,0.003,0.010,0.028,0.161,0.338,1.282
38.44,-0.007,0.023,0.020,0.003,0.010,0.028,0.161,0.338,1.282
38.46,0.002,0.012,0.000,0.003,0.010,0.029,0.162,0.338,1.283
38.48,0.011,0.002,0.000,0.003,0.010,0.029,0.162,0.339,1.284
38.50,-0.009,0.002,0.000,0.003,0.010,0.029,0.162,0.339,1.285
38.52,-0.017,-0.007,0.000,0.003,0.010,0.029,0.162,0.339,1.285
38.54,-0.017,-0.007,0.000,0.003,0.010,0.029,0.162,0.339,1.286
38.56,0.002,-0.015,0.000,0.003,0.010,0.029,0.162,0.339,1.286
38.58,0.011,0.013,0.010,0.003,0.010,0.029,0.162,0.340,1.288
38.60,0.001,-0.007,-0.010,0.003,0.010,0.029,0.162,0.340,1.288
38.62,0.001,-0.015,0.010,0.003,0.010,0.029,0.162,0.340,1.289
38.64,-0.008,-0.005,0.010,0.003,0.010,0.029,0.162,0.340,1.289
38.66,-0.008,0.013,0.000,0.003,0.009,0.029,0.162,0.341,1.290
38.68,-0.007,-0.015,0.030,0.003,0.009,0.029,0.162,0.341,1.291
38.70,0.012,-0.034,-0.019,0.003,0.009,0.029,0.162,0.341,1.292
38.72,0.020,0.004,0.000,0.003,0.009,0.030,0.162,0.341,1.292
38.74,0.030,-0.005,0.000,0.003,0.009,0.030,0.162,0.342,1.293
38.76,0.010,0.031,0.010,0.003,0.009,0.030,0.163,0.342,1.293
38.78,-0.020,-0.008,0.000,0.003,0.009,0.030,0.163,0.342,1.294
38.80,-0.044,0.035,0.020,0.003,0.009,0.030,0.163,0.342,1.295
38.82,-0.013,0.041,0.020,0.002,0.009,0.030,0.163,0.342,1.296
38.84,0.026,-0.028,-0.010,0.002,0.009,0.030,0.163,0.343,1.296
38.86,0.059,-0.034,-0.019,0.002,0.009,0.030,0.163,0.343,1.297
38.88,0.040,-0.005,-0.019,0.002,0.009,0.030,0.163,0.343,1.298
38.90,0.000,0.024,0.010,0.003,0.009,0.030,0.163,0.343,1.299
38.92,-0.017,-0.014,0.010,0.003,0.009,0.030,0.163,0.344,1.299
38.94,-0.037,-0.033,-0.010,0.003,0.009,0.030,0.163,0.344,1.300
38.96,-0.007,0.023,0.020,0.003,0.009,0.030,0.163,0.344,1.301
38.98,-0.007,0.033,0.010,0.003,0.009,0.030,0.163,0.344,1.301
39.00,0.012,0.003,0.000,0.002,0.009,0.030,0.163,0.344,1.302
39.02,0.029,0.003,0.010,0.003,0.009,0.030,0.163,0.345,1.303
39.04,-0.001,0.023,0.010,0.003,0.009,0.030,0.163,0.345,1.304
