time,acc_x,acc_y,acc_z,vel_x,vel_y,vel_z,pos_x,pos_y,pos_z,rad_vel_x,rad_vel_y,rad_vel_z,rad_gyro_x,rad_gyro_y,rad_gyro_z,rad_mag_x,rad_mag_y,rad_mag_z
0.080,0.000,0.000,0.000,0.000,0.000,0.000,0.000,0.000,0.000,0.000,0.000,0.000,-0.000,-0.000,-0.000,-0.000,-0.000,-0.000,0.000,0.000,0.000,0.000,0.000,0.000
0.321,0.000,0.000,0.000,0.000,0.000,0.000,0.000,0.000,0.000,0.000,0.000,0.000,-0.150,-0.061,1.698,-0.150,-0.061,1.698,0.000,0.000,0.000,0.000,0.000,0.000
0.388,0.000,0.000,0.000,0.000,0.000,0.000,0.000,0.000,0.000,0.000,0.000,0.000,-0.154,-0.044,1.655,-0.154,-0.044,1.655,0.000,0.000,0.000,0.000,0.000,0.000
0.441,0.000,0.000,0.000,0.000,0.000,0.000,0.000,0.000,0.000,0.000,0.000,0.000,-0.153,-0.038,1.646,-0.153,-0.038,1.646,0.000,0.000,0.000,0.000,0.000,0.000
0.495,0.000,0.000,0.000,0.000,0.000,0.000,0.000,0.000,0.000,-0.048,-0.156,0.033,-0.142,-0.039,1.659,-0.142,-0.039,1.659,0.000,0.000,0.000,0.000,0.000,0.000
0.545,0.000,0.000,0.000,0.000,0.000,0.000,0.000,0.000,0.000,0.115,0.007,0.126,-0.145,-0.040,1.666,-0.145,-0.040,1.666,0.000,0.000,0.000,0.000,0.000,0.000
0.587,0.000,0.000,0.000,0.000,0.000,0.000,0.000,0.000,0.000,0.057,-0.024,0.076,-0.152,-0.038,1.659,-0.152,-0.038,1.659,0.000,0.000,0.000,0.000,0.000,0.000
0.628,0.000,0.000,0.000,0.000,0.000,0.000,0.000,0.000,0.000,-0.010,-0.032,0.082,-0.155,-0.035,1.664,-0.155,-0.035,1.664,0.000,0.000,0.000,0.000,0.000,0.000
0.666,0.000,0.000,0.000,0.000,0.000,0.000,0.000,0.000,0.000,-0.172,-0.208,0.029,-0.153,-0.038,1.676,-0.153,-0.038,1.676,0.000,0.000,0.000,0.000,0.000,0.000
0.701,0.000,0.000,0.000,0.000,0.000,0.000,0.000,0.000,0.000,-0.205,-0.182,0.016,-0.179,0.011,1.650,-0.179,0.011,1.650,0.000,0.000,0.000,0.000,0.000,0.000
0.736,0.000,0.000,0.000,0.000,0.000,0.000,0.000,0.000,0.000,-0.120,-0.044,0.059,-0.199,0.051,1.612,-0.199,0.051,1.612,0.000,0.000,0.000,0.000,0.000,0.000
0.773,0.000,0.000,0.000,0.000,0.000,0.000,0.000,0.000,0.000,0.034,0.016,0.061,-0.228,0.096,1.524,-0.228,0.096,1.524,0.000,0.000,0.000,0.000,0.000,0.000
0.805,0.000,0.000,0.000,0.000,0.000,0.000,0.000,0.000,0.000,0.148,0.137,0.064,-0.252,0.130,1.479,-0.252,0.130,1.479,0.000,0.000,0.000,0.000,0.000,0.000
0.840,0.000,0.000,0.000,0.000,0.000,0.000,0.000,0.000,0.000,0.233,0.187,0.056,-0.280,0.163,1.423,-0.280,0.163,1.423,0.000,0.000,0.000,0.000,0.000,0.000
0.871,0.000,0.000,0.000,0.000,0.000,0.000,0.000,0.000,0.000,0.045,0.022,-0.093,-0.277,0.151,1.455,-0.277,0.151,1.455,0.000,0.000,0.000,0.000,0.000,0.000
0.903,0.000,0.000,0.000,0.000,0.000,0.000,0.000,0.000,0.000,-0.094,-0.094,-0.159,-0.285,0.174,1.402,-0.285,0.174,1.402,0.000,0.000,0.000,0.000,0.000,0.000
0.931,0.000,0.000,0.000,0.000,0.000,0.000,0.000,0.000,0.000,-0.153,0.070,-0.106,-0.298,0.206,1.283,-0.298,0.206,1.283,0.000,0.000,0.000,0.000,0.000,0.000
0.958,0.000,0.000,0.000,0.000,0.000,0.000,0.000,0.000,0.000,-0.061,0.175,-0.034,-0.298,0.226,1.221,-0.298,0.226,1.221,0.000,0.000,0.000,0.000,0.000,0.000
0.985,0.000,0.000,0.000,0.000,0.000,0.000,0.000,0.000,0.000,0.056,-0.022,-0.073,-0.290,0.211,1.246,-0.290,0.211,1.246,0.000,0.000,0.000,0.000,0.000,0.000
1.012,0.000,0.000,0.000,0.000,0.000,0.000,0.000,0.000,0.000,0.043,-0.029,-0.088,-0.303,0.240,1.210,-0.303,0.240,1.210,0.000,0.000,0.000,0.000,0.000,0.000
1.038,0.000,0.000,0.000,0.000,0.000,0.000,0.000,0.000,0.000,-0.044,0.139,-0.016,-0.303,0.240,1.210,-0.308,0.256,1.187,0.000,0.000,0.000,0.000,0.000,0.000
1.065,0.000,0.000,0.000,0.000,0.000,0.000,0.000,0.000,0.000,-0.076,0.109,-0.018,-0.303,0.240,1.210,-0.299,0.239,1.236,0.000,0.000,0.000,0.000,0.000,0.000
1.091,0.000,0.000,0.000,0.000,0.000,0.000,0.000,0.000,0.000,-0.110,-0.061,-0.123,-0.303,0.240,1.210,-0.311,0.268,1.220,0.000,0.000,0.000,0.000,0.000,0.000
1.119,0.000,0.000,0.000,0.000,0.000,0.000,0.000,0.000,0.000,-0.111,-0.033,-0.134,-0.303,0.240,1.210,-0.309,0.277,1.193,0.000,0.000,0.000,0.000,0.000,0.000
1.145,0.000,0.000,0.000,0.000,0.000,0.000,0.000,0.000,0.000,-0.112,0.006,-0.099,-0.303,0.240,1.210,-0.296,0.258,1.223,0.000,0.000,0.000,0.000,0.000,0.000
1.173,0.000,0.000,0.000,0.000,0.000,0.000,0.000,0.000,0.000,-0.089,0.034,-0.060,-0.303,0.240,1.210,-0.306,0.286,1.143,0.000,0.000,0.000,0.000,0.000,0.000
1.201,0.000,0.000,0.000,0.000,0.000,0.000,0.000,0.000,0.000,-0.073,0.055,-0.087,-0.303,0.240,1.210,-0.304,0.293,1.128,0.000,0.000,0.000,0.000,0.000,0.000
1.227,0.000,0.000,0.000,0.000,0.000,0.000,0.000,0.000,0.000,-0.050,0.094,-0.093,-0.303,0.240,1.210,-0.293,0.275,1.216,0.000,0.000,0.000,0.000,0.000,0.000
1.255,0.000,0.000,0.000,0.000,0.000,0.000,0.000,0.000,0.000,-0.049,0.098,-0.088,-0.303,0.240,1.210,-0.304,0.303,1.130,0.000,0.000,0.000,0.000,0.000,0.000
1.282,0.000,0.000,0.000,0.000,0.000,0.000,0.000,0.000,0.000,-0.068,0.081,-0.099,-0.303,0.240,1.210,-0.304,0.313,1.120,0.000,0.000,0.000,0.000,0.000,0.000
1.307,0.000,0.000,0.000,0.000,0.000,0.000,0.000,0.000,0.000,-0.131,0.004,-0.136,-0.303,0.240,1.210,-0.291,0.294,1.191,0.000,0.000,0.000,0.000,0.000,0.000
1.334,0.000,0.000,0.000,0.000,0.000,0.000,0.000,0.000,0.000,-0.079,0.007,-0.112,-0.303,0.240,1.210,-0.300,0.320,1.104,0.000,0.000,0.000,0.000,0.000,0.000
1.359,0.000,0.000,0.000,0.000,0.000,0.000,0.000,0.000,0.000,0.059,0.068,-0.081,-0.303,0.240,1.210,-0.299,0.325,1.076,0.000,0.000,0.000,0.000,0.000,0.000
1.385,0.000,0.000,0.000,0.000,0.000,0.000,0.000,0.000,0.000,0.203,0.144,-0.048,-0.303,0.240,1.210,-0.293,0.307,1.104,0.000,0.000,0.000,0.000,0.000,0.000
1.410,0.000,0.000,0.000,0.000,0.000,0.000,0.000,0.000,0.000,0.209,0.302,0.054,-0.303,0.240,1.210,-0.307,0.334,1.013,0.000,0.000,0.000,0.000,0.000,0.000
1.435,0.000,0.000,0.000,0.000,0.000,0.000,0.000,0.000,0.000,0.139,0.468,0.073,-0.303,0.240,1.210,-0.315,0.351,0.989,0.000,0.000,0.000,0.000,0.000,0.000
1.460,0.000,0.000,0.000,0.000,0.000,0.000,0.000,0.000,0.000,0.120,0.663,0.093,-0.303,0.240,1.210,-0.309,0.346,1.058,0.000,0.000,0.000,0.000,0.000,0.000
1.486,0.000,0.000,0.000,0.000,0.000,0.000,0.000,0.000,0.000,0.056,0.600,0.182,-0.303,0.240,1.210,-0.321,0.381,1.063,0.000,0.000,0.000,0.000,0.000,0.000
1.512,0.000,0.000,0.000,0.000,0.000,0.000,0.000,0.000,0.000,-0.023,0.459,0.155,-0.303,0.240,1.210,-0.314,0.371,1.087,0.000,0.000,0.000,0.000,0.000,0.000
1.537,0.000,0.000,0.000,0.000,0.000,0.000,0.000,0.000,0.000,-0.092,0.263,0.098,-0.303,0.240,1.210,-0.313,0.382,1.089,0.000,0.000,0.000,0.000,0.000,0.000
1.562,0.000,0.000,0.000,0.000,0.000,0.000,0.000,0.000,0.000,-0.108,0.144,0.032,-0.303,0.240,1.210,-0.322,0.407,1.044,0.000,0.000,0.000,0.000,0.000,0.000
1.588,0.000,0.000,0.000,0.000,0.000,0.000,0.000,0.000,0.000,0.039,0.170,0.020,-0.303,0.240,1.210,-0.309,0.388,1.144,0.000,0.000,0.000,0.000,0.000,0.000
1.615,0.000,0.000,0.000,0.000,0.000,0.000,0.000,0.000,0.000,0.072,0.149,0.043,-0.303,0.240,1.210,-0.322,0.413,1.114,0.000,0.000,0.000,0.000,0.000,0.000
1.640,0.000,0.000,0.000,0.000,0.000,0.000,0.000,0.000,0.000,0.046,0.046,0.073,-0.303,0.240,1.210,-0.325,0.417,1.093,0.000,0.000,0.000,0.000,0.000,0.000
1.665,0.000,0.000,0.000,0.000,0.000,0.000,0.000,0.000,0.000,-0.248,-0.081,0.067,-0.303,0.240,1.210,-0.313,0.392,1.152,0.000,0.000,0.000,0.000,0.000,0.000
1.691,0.000,0.000,0.000,0.000,0.000,0.000,0.000,0.000,0.000,-0.321,-0.106,0.079,-0.303,0.240,1.210,-0.321,0.410,1.089,0.000,0.000,0.000,0.000,0.000,0.000
1.717,0.000,0.000,0.000,0.000,0.000,0.000,0.000,0.000,0.000,-0.271,-0.150,0.103,-0.303,0.240,1.210,-0.312,0.400,1.122,0.000,0.000,0.000,0.000,0.000,0.000
1.745,0.000,0.000,0.000,0.000,0.000,0.000,0.000,0.000,0.000,0.059,-0.082,0.161,-0.303,0.240,1.210,-0.300,0.373,1.151,0.000,0.000,0.000,0.000,0.000,0.000
1.771,0.000,0.000,0.000,0.000,0.000,0.000,0.000,0.000,0.000,0.143,-0.064,0.177,-0.303,0.240,1.210,-0.314,0.390,1.106,0.000,0.000,0.000,0.000,0.000,0.000
1.798,0.000,0.000,0.000,0.000,0.000,0.000,0.000,0.000,0.000,0.119,-0.079,0.130,-0.303,0.240,1.210,-0.324,0.381,1.096,0.000,0.000,0.000,0.000,0.000,0.000
1.825,0.000,0.000,0.000,0.000,0.000,0.000,0.000,0.000,0.000,-0.136,-0.111,-0.005,-0.303,0.240,1.210,-0.315,0.354,1.193,0.000,0.000,0.000,0.000,0.000,0.000
1.851,0.000,0.000,0.000,0.000,0.000,0.000,0.000,0.000,0.000,-0.225,-0.089,-0.033,-0.303,0.240,1.210,-0.325,0.372,1.165,0.000,0.000,0.000,0.000,0.000,0.000
1.880,0.000,0.000,0.000,0.000,0.000,0.000,0.000,0.000,0.000,-0.214,-0.045,-0.032,-0.303,0.240,1.210,-0.320,0.366,1.220,0.000,0.000,0.000,0.000,0.000,0.000
1.908,0.000,0.000,0.000,0.000,0.000,0.000,0.000,0.000,0.000,-0.026,-0.011,-0.049,-0.303,0.240,1.210,-0.306,0.343,1.290,0.000,0.000,0.000,0.000,0.000,0.000
1.934,0.000,0.000,0.000,0.000,0.000,0.000,0.000,0.000,0.000,0.010,-0.068,-0.081,-0.303,0.240,1.210,-0.320,0.363,1.193,0.000,0.000,0.000,0.000,0.000,0.000
1.961,0.000,0.000,0.000,0.000,0.000,0.000,0.000,0.000,0.000,-0.013,-0.098,-0.099,-0.303,0.240,1.210,-0.321,0.358,1.208,0.000,0.000,0.000,0.000,0.000,0.000
1.988,0.000,0.000,0.000,0.000,0.000,0.000,0.000,0.000,0.000,-0.094,0.021,-0.092,-0.303,0.240,1.210,-0.308,0.337,1.212,0.000,0.000,0.000,0.000,0.000,0.000
2.015,0.000,0.000,0.000,0.000,0.000,0.000,0.000,0.000,0.000,-0.092,0.060,-0.083,-0.303,0.240,1.210,-0.318,0.355,1.162,0.000,0.000,0.000,0.000,0.000,0.000
2.042,0.000,0.000,0.000,0.003,-0.002,0.001,0.000,-0.000,0.000,-0.084,0.035,-0.086,-0.303,0.240,1.210,-0.317,0.358,1.224,0.000,0.000,0.000,0.000,0.000,0.000
2.080,0.000,0.000,0.000,0.021,-0.015,0.009,0.000,-0.000,0.000,-0.084,-0.075,-0.099,-0.304,0.240,1.210,-0.316,0.356,1.182,0.000,0.000,0.000,0.000,0.000,0.000
2.109,0.000,0.000,0.000,0.036,-0.027,0.016,0.001,-0.001,0.000,-0.034,0.049,-0.066,-0.305,0.240,1.208,-0.303,0.336,1.200,0.000,0.000,0.000,0.000,0.000,0.000
2.136,0.000,0.000,0.000,0.076,-0.057,0.034,0.003,-0.002,0.001,0.023,0.108,-0.045,-0.305,0.240,1.208,-0.304,0.340,1.180,0.000,0.000,0.000,0.000,0.000,0.000
2.165,0.000,0.000,0.000,0.100,-0.076,0.043,0.005,-0.004,0.002,0.048,0.086,-0.051,-0.306,0.240,1.207,-0.319,0.359,1.159,0.000,0.000,0.000,0.000,0.000,0.000
2.195,0.000,0.000,0.000,0.155,-0.118,0.064,0.010,-0.008,0.004,0.009,0.011,-0.050,-0.306,0.241,1.205,-0.320,0.359,1.151,0.000,0.000,0.000,0.000,0.000,0.000
2.225,0.000,0.000,0.000,0.185,-0.141,0.075,0.013,-0.010,0.006,0.011,0.026,-0.050,-0.306,0.241,1.205,-0.308,0.342,1.145,0.000,0.000,0.000,0.000,0.000,0.000
2.256,0.000,0.000,0.000,0.250,-0.193,0.097,0.022,-0.017,0.009,0.018,0.040,0.004,-0.306,0.242,1.203,-0.320,0.360,1.083,0.000,0.000,0.000,0.000,0.000,0.000
2.287,0.000,0.000,0.000,0.286,-0.222,0.109,0.028,-0.021,0.011,0.011,-0.140,-0.009,-0.306,0.242,1.202,-0.322,0.357,1.118,0.000,0.000,0.000,0.000,0.000,0.000
2.320,0.000,0.000,0.000,0.360,-0.280,0.131,0.040,-0.031,0.016,-0.020,-0.154,-0.042,-0.306,0.242,1.201,-0.321,0.346,1.113,0.000,0.000,0.000,0.000,0.000,0.000
2.352,0.000,0.000,0.000,0.402,-0.314,0.143,0.048,-0.037,0.019,-0.076,-0.034,-0.078,-0.307,0.241,1.200,-0.306,0.324,1.163,0.000,0.000,0.000,0.000,0.000,0.000
2.385,0.000,0.000,0.000,0.482,-0.379,0.168,0.066,-0.051,0.025,-0.013,0.005,-0.035,-0.307,0.240,1.198,-0.304,0.319,1.156,0.000,0.000,0.000,0.000,0.000,0.000
2.417,0.000,0.000,0.000,0.570,-0.448,0.194,0.087,-0.067,0.032,0.000,-0.029,-0.073,-0.308,0.240,1.197,-0.303,0.314,1.184,0.000,0.000,0.000,0.000,0.000,0.000
2.447,0.000,0.000,0.000,0.616,-0.483,0.207,0.098,-0.077,0.036,-0.067,0.121,-0.078,-0.308,0.239,1.195,-0.317,0.330,1.161,0.000,0.000,0.000,0.000,0.000,0.000
2.477,0.000,0.000,0.000,0.710,-0.556,0.227,0.125,-0.097,0.045,-0.122,0.292,-0.020,-0.309,0.239,1.194,-0.313,0.332,1.158,0.000,0.000,0.000,0.000,0.000,0.000
2.509,0.000,0.000,0.000,0.759,-0.594,0.236,0.140,-0.109,0.050,-0.246,0.346,-0.072,-0.311,0.241,1.192,-0.297,0.319,1.176,0.000,0.000,0.000,0.000,0.000,0.000
2.540,0.000,0.000,0.000,0.856,-0.670,0.251,0.172,-0.134,0.059,-0.303,0.227,-0.123,-0.313,0.244,1.191,-0.285,0.327,1.179,0.000,0.000,0.000,0.000,0.000,0.000
2.575,0.000,0.000,0.000,0.951,-0.747,0.267,0.208,-0.162,0.070,-0.246,0.066,-0.059,-0.317,0.247,1.189,-0.274,0.327,1.170,0.000,0.000,0.000,0.000,0.000,0.000
2.605,0.000,0.000,0.000,0.999,-0.785,0.275,0.228,-0.178,0.075,-0.167,0.022,-0.044,-0.319,0.249,1.188,-0.283,0.341,1.133,0.000,0.000,0.000,0.000,0.000,0.000
2.633,0.000,0.000,0.000,1.051,-0.826,0.284,0.250,-0.196,0.081,-0.200,-0.140,-0.120,-0.324,0.252,1.185,-0.269,0.322,1.171,0.000,0.000,0.000,0.000,0.000,0.000
2.658,0.000,0.000,0.000,1.140,-0.896,0.300,0.292,-0.228,0.092,-0.250,-0.154,-0.188,-0.327,0.253,1.184,-0.261,0.315,1.239,0.000,0.000,0.000,0.000,0.000,0.000
2.683,0.000,0.000,0.000,1.185,-0.932,0.309,0.315,-0.247,0.098,-0.288,-0.109,-0.231,-0.331,0.254,1.182,-0.269,0.327,1.219,0.000,0.000,0.000,0.000,0.000,0.000
2.709,0.000,0.000,0.000,1.230,-0.968,0.320,0.339,-0.266,0.105,-0.296,-0.073,-0.216,-0.338,0.254,1.178,-0.249,0.313,1.233,0.000,0.000,0.000,0.000,0.000,0.000
2.735,0.000,0.000,0.000,1.316,-1.041,0.343,0.390,-0.306,0.118,-0.235,-0.095,-0.177,-0.341,0.254,1.175,-0.239,0.310,1.204,0.000,0.000,0.000,0.000,0.000,0.000
2.762,0.000,0.000,0.000,1.358,-1.077,0.356,0.417,-0.327,0.125,-0.150,-0.110,-0.136,-0.346,0.254,1.173,-0.247,0.320,1.105,0.000,0.000,0.000,0.000,0.000,0.000
2.787,0.000,0.000,0.000,1.398,-1.112,0.369,0.444,-0.349,0.132,-0.137,-0.161,-0.103,-0.353,0.253,1.168,-0.232,0.305,1.068,0.000,0.000,0.000,0.000,0.000,0.000
2.820,0.000,0.000,0.000,1.477,-1.185,0.397,0.502,-0.395,0.147,-0.154,-0.171,-0.066,-0.356,0.252,1.165,-0.223,0.297,1.088,0.000,0.000,0.000,0.000,0.000,0.000
2.851,0.000,0.000,0.000,1.518,-1.223,0.412,0.533,-0.420,0.156,-0.055,-0.139,0.042,-0.363,0.250,1.161,-0.231,0.305,1.088,0.000,0.000,0.000,0.000,0.000,0.000
2.883,0.000,0.000,0.000,1.592,-1.293,0.441,0.594,-0.469,0.173,0.042,-0.109,0.084,-0.366,0.248,1.159,-0.231,0.295,1.119,0.000,0.000,0.000,0.000,0.000,0.000
2.915,0.000,0.000,0.000,1.670,-1.366,0.471,0.659,-0.522,0.191,0.046,-0.031,0.024,-0.371,0.245,1.157,-0.220,0.278,1.133,0.000,0.000,0.000,0.000,0.000,0.000
2.942,0.000,0.000,0.000,1.708,-1.402,0.489,0.693,-0.550,0.200,0.176,0.059,0.053,-0.373,0.244,1.156,-0.225,0.277,1.162,0.000,0.000,0.000,0.000,0.000,0.000
2.970,0.000,0.000,0.000,1.745,-1.438,0.511,0.728,-0.578,0.210,0.870,0.221,0.716,-0.374,0.242,1.155,-0.246,0.289,1.079,0.000,0.000,0.000,0.000,0.000,0.000
2.996,0.000,0.000,0.000,1.820,-1.508,0.557,0.799,-0.637,0.232,1.062,0.528,1.103,-0.372,0.242,1.157,-0.290,0.289,1.024,0.000,0.000,0.000,0.000,0.000,0.000
3.023,0.000,0.000,0.000,1.861,-1.544,0.578,0.836,-0.668,0.243,0.882,0.976,1.117,-0.367,0.244,1.162,-0.296,0.285,1.065,0.000,0.000,0.000,0.000,0.000,0.000
3.049,0.000,0.000,0.000,1.900,-1.583,0.596,0.873,-0.699,0.255,-0.095,2.145,1.109,-0.358,0.254,1.174,-0.317,0.316,1.117,0.000,0.000,0.000,0.000,0.000,0.000
3.076,0.000,0.000,0.000,1.979,-1.665,0.626,0.951,-0.764,0.279,-0.437,2.641,1.445,-0.354,0.266,1.184,-0.314,0.387,1.116,0.000,0.000,0.000,0.000,0.000,0.000
3.103,0.000,0.000,0.000,2.020,-1.706,0.639,0.991,-0.798,0.292,-0.666,2.154,1.301,-0.352,0.282,1.196,-0.306,0.405,1.204,0.000,0.000,0.000,0.000,0.000,0.000
3.129,0.000,0.000,0.000,2.061,-1.744,0.654,1.032,-0.832,0.305,0.187,-0.687,-0.800,-0.350,0.313,1.215,-0.307,0.434,1.308,0.000,0.000,0.000,0.000,0.000,0.000
3.155,0.000,0.000,0.000,2.141,-1.815,0.678,1.116,-0.903,0.332,0.720,-1.675,-0.729,-0.349,0.324,1.221,-0.302,0.414,1.333,0.000,0.000,0.000,0.000,0.000,0.000
3.182,0.000,0.000,0.000,2.178,-1.848,0.687,1.159,-0.940,0.345,0.919,-1.508,-0.970,-0.346,0.332,1.226,-0.326,0.370,1.323,0.000,0.000,0.000,0.000,0.000,0.000
3.209,0.000,0.000,0.000,2.212,-1.878,0.697,1.203,-0.977,0.359,0.830,-1.798,-1.126,-0.336,0.336,1.227,-0.346,0.358,1.179,0.000,0.000,0.000,0.000,0.000,0.000
3.241,0.000,0.000,0.000,2.274,-1.935,0.716,1.293,-1.054,0.387,0.640,-2.627,-0.650,-0.330,0.331,1.224,-0.368,0.288,1.160,0.000,0.000,0.000,0.000,0.000,0.000
3.273,0.000,0.000,0.000,2.307,-1.967,0.717,1.343,-1.096,0.403,-0.155,-1.390,0.087,-0.316,0.310,1.218,-0.373,0.225,1.139,0.000,0.000,0.000,0.000,0.000,0.000
3.304,0.000,0.000,0.000,2.366,-2.021,0.717,1.432,-1.172,0.430,-0.699,0.043,0.193,-0.310,0.296,1.216,-0.347,0.182,1.200,0.000,0.000,0.000,0.000,0.000,0.000
3.335,0.000,0.000,0.000,2.436,-2.091,0.730,1.528,-1.254,0.459,-0.655,0.566,0.023,-0.305,0.277,1.213,-0.310,0.194,1.230,0.000,0.000,0.000,0.000,0.000,0.000
3.366,0.000,0.000,0.000,2.472,-2.127,0.737,1.577,-1.297,0.474,0.045,0.280,-0.202,-0.305,0.266,1.210,-0.315,0.212,1.180,0.000,0.000,0.000,0.000,0.000,0.000
3.397,0.000,0.000,0.000,2.544,-2.195,0.747,1.677,-1.383,0.504,0.075,-0.220,-0.191,-0.305,0.261,1.209,-0.325,0.211,1.156,0.000,0.000,0.000,0.000,0.000,0.000
3.430,0.000,0.000,0.000,2.584,-2.229,0.749,1.736,-1.434,0.521,-0.281,0.291,0.016,-0.305,0.253,1.205,-0.318,0.196,1.193,0.000,0.000,0.000,0.000,0.000,0.000
3.462,0.000,0.000,0.000,2.651,-2.285,0.747,1.836,-1.520,0.549,-0.600,0.746,0.177,-0.307,0.250,1.204,-0.301,0.206,1.204,0.000,0.000,0.000,0.000,0.000,0.000
3.495,0.000,0.000,0.000,2.689,-2.316,0.745,1.892,-1.568,0.565,-1.203,0.677,0.518,-0.313,0.249,1.203,-0.294,0.228,1.238,0.000,0.000,0.000,0.000,0.000,0.000
3.528,0.000,0.000,0.000,2.760,-2.364,0.750,1.995,-1.657,0.593,0.159,-0.203,0.099,-0.324,0.253,1.205,-0.275,0.231,1.269,0.000,0.000,0.000,0.000,0.000,0.000
3.559,0.000,0.000,0.000,2.837,-2.403,0.761,2.107,-1.752,0.623,0.334,-0.838,-0.059,-0.329,0.254,1.206,-0.295,0.203,1.260,0.000,0.000,0.000,0.000,0.000,0.000
3.590,0.000,0.000,0.000,2.877,-2.421,0.765,2.167,-1.803,0.640,-0.158,-0.897,-0.006,-0.336,0.250,1.209,-0.291,0.171,1.264,0.000,0.000,0.000,0.000,0.000,0.000
3.621,0.000,0.000,0.000,2.950,-2.456,0.778,2.281,-1.898,0.670,-0.265,-0.607,-0.013,-0.340,0.246,1.210,-0.282,0.131,1.286,0.000,0.000,0.000,0.000,0.000,0.000
3.649,0.000,0.000,0.000,2.986,-2.474,0.790,2.340,-1.947,0.685,-0.075,-0.104,-0.195,-0.347,0.237,1.211,-0.288,0.131,1.267,0.000,0.000,0.000,0.000,0.000,0.000
3.678,0.000,0.000,0.000,3.053,-2.508,0.823,2.461,-2.047,0.717,0.213,-0.026,-0.088,-0.350,0.233,1.211,-0.289,0.127,1.264,0.000,0.000,0.000,0.000,0.000,0.000
3.705,0.000,0.000,0.000,3.084,-2.526,0.845,2.522,-2.097,0.734,0.635,-0.093,-0.026,-0.352,0.228,1.211,-0.290,0.120,1.270,0.000,0.000,0.000,0.000,0.000,0.000
3.732,0.000,0.000,0.000,3.113,-2.545,0.867,2.584,-2.148,0.751,1.119,0.010,0.236,-0.351,0.221,1.211,-0.318,0.122,1.246,0.000,0.000,0.000,0.000,0.000,0.000
3.761,0.000,0.000,0.000,3.166,-2.584,0.910,2.710,-2.251,0.787,1.206,0.257,0.332,-0.346,0.219,1.212,-0.363,0.123,1.208,0.000,0.000,0.000,0.000,0.000,0.000
3.790,0.000,0.000,0.000,3.189,-2.604,0.927,2.773,-2.302,0.805,0.740,0.215,0.173,-0.333,0.215,1.215,-0.376,0.133,1.247,0.000,0.000,0.000,0.000,0.000,0.000
3.816,0.000,0.000,0.000,3.230,-2.652,0.957,2.902,-2.408,0.843,0.171,-0.440,0.076,-0.326,0.214,1.216,-0.375,0.122,1.294,0.000,0.000,0.000,0.000,0.000,0.000
3.845,0.000,0.000,0.000,3.250,-2.684,0.978,2.967,-2.461,0.862,0.127,-0.795,-0.015,-0.313,0.208,1.219,-0.381,0.110,1.300,0.000,0.000,0.000,0.000,0.000,0.000
3.872,0.000,0.000,0.000,3.270,-2.721,1.003,3.035,-2.518,0.883,0.673,-0.661,0.103,-0.307,0.203,1.221,-0.359,0.089,1.341,0.000,0.000,0.000,0.000,0.000,0.000
3.901,0.000,0.000,0.000,3.304,-2.798,1.042,3.163,-2.625,0.923,0.695,-0.496,0.183,-0.299,0.197,1.222,-0.374,0.061,1.345,0.000,0.000,0.000,0.000,0.000,0.000
3.929,0.000,0.000,0.000,3.322,-2.841,1.058,3.229,-2.682,0.944,-0.233,0.173,0.197,-0.287,0.187,1.225,-0.386,0.061,1.351,0.000,0.000,0.000,0.000,0.000,0.000
3.957,0.000,0.000,0.000,3.355,-2.930,1.089,3.363,-2.797,0.987,-0.183,0.205,0.181,-0.281,0.183,1.228,-0.368,0.063,1.407,0.000,0.000,0.000,0.000,0.000,0.000
3.985,0.000,0.000,0.000,3.371,-2.975,1.102,3.430,-2.856,1.009,0.049,0.151,0.143,-0.276,0.179,1.230,-0.353,0.059,1.471,0.000,0.000,0.000,0.000,0.000,0.000
4.013,0.000,0.000,0.000,3.388,-3.024,1.111,3.501,-2.919,1.032,0.097,0.126,-0.029,-0.268,0.174,1.234,-0.367,0.065,1.439,0.000,0.000,0.000,0.000,0.000,0.000
4.042,0.000,0.000,0.000,3.419,-3.112,1.119,3.634,-3.039,1.076,-0.131,0.189,-0.133,-0.264,0.173,1.236,-0.371,0.079,1.404,0.000,0.000,0.000,0.000,0.000,0.000
4.070,0.000,0.000,0.000,3.436,-3.161,1.122,3.706,-3.105,1.099,-0.274,0.257,-0.169,-0.259,0.171,1.238,-0.343,0.075,1.403,0.000,0.000,0.000,0.000,0.000,0.000
4.101,0.000,0.000,0.000,3.465,-3.251,1.123,3.841,-3.230,1.143,-0.235,0.186,-0.255,-0.258,0.171,1.238,-0.322,0.082,1.404,0.000,0.000,0.000,0.000,0.000,0.000
4.133,0.000,0.000,0.000,3.481,-3.302,1.121,3.917,-3.302,1.168,-0.286,0.294,-0.161,-0.257,0.172,1.238,-0.324,0.089,1.380,0.000,0.000,0.000,0.000,0.000,0.000
4.166,0.000,0.000,0.000,3.508,-3.389,1.113,4.050,-3.429,1.210,-0.468,0.502,-0.169,-0.259,0.176,1.236,-0.306,0.105,1.385,0.000,0.000,0.000,0.000,0.000,0.000
4.198,0.000,0.000,0.000,3.536,-3.475,1.098,4.191,-3.566,1.254,-0.505,0.456,-0.275,-0.261,0.179,1.234,-0.287,0.128,1.378,0.000,0.000,0.000,0.000,0.000,0.000
4.225,0.000,0.000,0.000,3.548,-3.515,1.089,4.261,-3.636,1.276,-0.279,0.082,-0.221,-0.267,0.186,1.231,-0.272,0.135,1.386,0.000,0.000,0.000,0.000,0.000,0.000
4.252,0.000,0.000,0.000,3.559,-3.552,1.081,4.333,-3.707,1.298,-0.079,-0.029,-0.126,-0.270,0.189,1.229,-0.273,0.140,1.375,0.000,0.000,0.000,0.000,0.000,0.000
4.281,0.000,0.000,0.000,3.580,-3.620,1.065,4.475,-3.850,1.341,0.094,-0.093,-0.088,-0.273,0.192,1.226,-0.278,0.138,1.358,0.000,0.000,0.000,0.000,0.000,0.000
4.310,0.000,0.000,0.000,3.590,-3.650,1.058,4.547,-3.923,1.362,0.226,-0.252,-0.150,-0.277,0.196,1.222,-0.279,0.135,1.363,0.000,0.000,0.000,0.000,0.000,0.000
4.337,0.000,0.000,0.000,3.607,-3.703,1.051,4.691,-4.070,1.404,0.230,-0.224,-0.133,-0.279,0.196,1.220,-0.288,0.128,1.375,0.000,0.000,0.000,0.000,0.000,0.000
4.365,0.000,0.000,0.000,3.615,-3.728,1.051,4.767,-4.148,1.426,0.437,-0.210,-0.015,-0.279,0.197,1.215,-0.302,0.127,1.382,0.000,0.000,0.000,0.000,0.000,0.000
4.392,0.000,0.000,0.000,3.622,-3.750,1.052,4.839,-4.223,1.447,0.347,-0.286,0.005,-0.277,0.196,1.213,-0.304,0.117,1.378,0.000,0.000,0.000,0.000,0.000,0.000
4.420,0.000,0.000,0.000,3.640,-3.793,1.057,4.981,-4.370,1.488,0.121,-0.279,-0.066,-0.276,0.195,1.211,-0.312,0.101,1.377,0.000,0.000,0.000,0.000,0.000,0.000
4.450,0.000,0.000,0.000,3.651,-3.814,1.061,5.054,-4.446,1.509,-0.481,-0.160,-0.277,-0.274,0.192,1.208,-0.314,0.101,1.325,0.000,0.000,0.000,0.000,0.000,0.000
4.478,0.000,0.000,0.000,3.677,-3.865,1.078,5.200,-4.599,1.552,-0.969,-0.396,-0.490,-0.275,0.190,1.205,-0.270,0.084,1.361,0.000,0.000,0.000,0.000,0.000,0.000
4.509,0.000,0.000,0.000,3.687,-3.896,1.096,5.274,-4.677,1.574,-0.869,0.032,-0.536,-0.283,0.185,1.197,-0.223,0.083,1.371,0.000,0.000,0.000,0.000,0.000,0.000
4.535,0.000,0.000,0.000,3.700,-3.964,1.132,5.422,-4.834,1.619,-0.090,0.533,-0.100,-0.288,0.183,1.193,-0.211,0.087,1.371,0.000,0.000,0.000,0.000,0.000,0.000
4.561,0.000,0.000,0.000,3.705,-3.998,1.143,5.496,-4.914,1.641,0.459,0.519,0.286,-0.292,0.183,1.189,-0.214,0.114,1.337,0.000,0.000,0.000,0.000,0.000,0.000
4.589,0.000,0.000,0.000,3.713,-4.034,1.151,5.577,-5.002,1.666,0.156,-0.679,0.265,-0.298,0.182,1.184,-0.212,0.096,1.361,0.000,0.000,0.000,0.000,0.000,0.000
4.618,0.000,0.000,0.000,3.736,-4.098,1.165,5.719,-5.157,1.710,-0.231,-0.958,0.021,-0.300,0.180,1.183,-0.198,0.052,1.385,0.000,0.000,0.000,0.000,0.000,0.000
4.646,0.000,0.000,0.000,3.751,-4.134,1.176,5.794,-5.239,1.734,-0.143,-0.345,-0.236,-0.304,0.171,1.180,-0.196,0.038,1.401,0.000,0.000,0.000,0.000,0.000,0.000
4.673,0.000,0.000,0.000,3.765,-4.171,1.187,5.873,-5.326,1.759,0.045,0.121,-0.148,-0.307,0.167,1.178,-0.180,0.029,1.394,0.000,0.000,0.000,0.000,0.000,0.000
4.701,0.000,0.000,0.000,3.792,-4.239,1.203,6.020,-5.490,1.805,-0.011,0.319,-0.055,-0.310,0.163,1.175,-0.177,0.034,1.376,0.000,0.000,0.000,0.000,0.000,0.000
4.730,0.000,0.000,0.000,3.805,-4.272,1.208,6.096,-5.575,1.829,0.170,0.164,-0.040,-0.313,0.158,1.172,-0.180,0.040,1.363,0.000,0.000,0.000,0.000,0.000,0.000
4.757,0.000,0.000,0.000,3.835,-4.333,1.210,6.249,-5.748,1.878,0.208,0.220,-0.097,-0.314,0.157,1.171,-0.186,0.041,1.362,0.000,0.000,0.000,0.000,0.000,0.000
4.785,0.000,0.000,0.000,3.850,-4.361,1.206,6.326,-5.834,1.902,0.071,0.315,-0.150,-0.315,0.156,1.167,-0.187,0.045,1.374,0.000,0.000,0.000,0.000,0.000,0.000
4.814,0.000,0.000,0.000,3.864,-4.388,1.199,6.407,-5.926,1.927,-0.039,0.312,-0.092,-0.315,0.157,1.165,-0.192,0.053,1.373,0.000,0.000,0.000,0.000,0.000,0.000
4.841,0.000,0.000,0.000,3.889,-4.435,1.182,6.558,-6.098,1.974,-0.088,0.237,-0.035,-0.316,0.158,1.163,-0.190,0.062,1.372,0.000,0.000,0.000,0.000,0.000,0.000
4.869,0.000,0.000,0.000,3.903,-4.458,1.172,6.640,-6.192,1.998,0.001,0.035,-0.011,-0.317,0.160,1.160,-0.186,0.059,1.373,0.000,0.000,0.000,0.000,0.000,0.000
4.898,0.000,0.000,0.000,3.928,-4.495,1.157,6.792,-6.366,2.044,0.042,0.115,0.016,-0.317,0.161,1.159,-0.189,0.059,1.371,0.000,0.000,0.000,0.000,0.000,0.000
4.926,0.000,0.000,0.000,3.940,-4.512,1.151,6.871,-6.456,2.067,0.126,0.269,0.130,-0.318,0.165,1.157,-0.194,0.064,1.361,0.000,0.000,0.000,0.000,0.000,0.000
4.954,0.000,0.000,0.000,3.952,-4.527,1.147,6.950,-6.547,2.090,0.254,0.269,0.193,-0.317,0.167,1.156,-0.195,0.065,1.353,0.000,0.000,0.000,0.000,0.000,0.000
4.981,0.000,0.000,0.000,3.976,-4.554,1.144,7.108,-6.728,2.136,0.368,0.246,0.226,-0.316,0.169,1.156,-0.205,0.070,1.345,0.000,0.000,0.000,0.000,0.000,0.000
5.009,0.000,0.000,0.000,3.988,-4.567,1.145,7.188,-6.820,2.158,0.454,0.194,0.195,-0.312,0.175,1.157,-0.216,0.074,1.360,0.000,0.000,0.000,0.000,0.000,0.000
5.037,0.000,0.000,0.000,4.009,-4.595,1.149,7.348,-7.003,2.204,0.417,0.389,0.204,-0.309,0.178,1.159,-0.227,0.084,1.367,0.000,0.000,0.000,0.000,0.000,0.000
5.065,0.000,0.000,0.000,4.019,-4.613,1.149,7.428,-7.095,2.227,0.162,0.467,0.154,-0.306,0.182,1.160,-0.213,0.086,1.404,0.000,0.000,0.000,0.000,0.000,0.000
5.095,0.000,0.000,0.000,4.035,-4.664,1.166,7.589,-7.280,2.274,-1.289,-0.270,-0.396,-0.302,0.189,1.162,-0.151,0.085,1.449,0.000,0.000,0.000,0.000,0.000,0.000
5.125,0.000,0.000,0.000,4.039,-4.698,1.187,7.670,-7.374,2.297,-0.501,0.128,-0.094,-0.307,0.194,1.161,-0.129,0.082,1.413,0.000,0.000,0.000,0.000,0.000,0.000
5.156,0.000,0.000,0.000,4.043,-4.772,1.230,7.832,-7.563,2.345,0.242,0.331,0.316,-0.311,0.196,1.161,-0.107,0.092,1.398,0.000,0.000,0.000,0.000,0.000,0.000
5.187,0.000,0.000,0.000,4.045,-4.808,1.244,7.913,-7.659,2.370,0.483,0.191,0.431,-0.314,0.199,1.162,-0.107,0.095,1.408,0.000,0.000,0.000,0.000,0.000,0.000
5.217,0.000,0.000,0.000,4.049,-4.878,1.259,8.074,-7.853,2.420,-0.246,-0.018,0.103,-0.317,0.204,1.164,-0.098,0.093,1.421,0.000,0.000,0.000,0.000,0.000,0.000
5.249,0.000,0.000,0.000,4.051,-4.911,1.263,8.155,-7.951,2.446,-0.354,-0.010,-0.033,-0.321,0.208,1.166,-0.092,0.094,1.473,0.000,0.000,0.000,0.000,0.000,0.000
5.278,0.000,0.000,0.000,4.058,-4.975,1.265,8.318,-8.149,2.496,-0.164,-0.133,-0.092,-0.324,0.209,1.167,-0.076,0.089,1.478,0.000,0.000,0.000,0.000,0.000,0.000
5.310,0.000,0.000,0.000,4.061,-5.004,1.261,8.399,-8.248,2.521,-0.015,-0.149,-0.137,-0.330,0.211,1.168,-0.070,0.086,1.475,0.000,0.000,0.000,0.000,0.000,0.000
5.342,0.000,0.000,0.000,4.067,-5.058,1.245,8.561,-8.450,2.571,-0.015,-0.126,-0.090,-0.332,0.211,1.168,-0.068,0.079,1.466,0.000,0.000,0.000,0.000,0.000,0.000
5.377,0.000,0.000,0.000,4.074,-5.104,1.220,8.724,-8.653,2.621,0.070,-0.209,-0.088,-0.336,0.211,1.168,-0.072,0.073,1.447,0.000,0.000,0.000,0.000,0.000,0.000
5.410,0.000,0.000,0.000,4.077,-5.124,1.206,8.806,-8.755,2.645,0.057,-0.236,-0.076,-0.339,0.209,1.167,-0.075,0.069,1.434,0.000,0.000,0.000,0.000,0.000,0.000
5.441,0.000,0.000,0.000,4.082,-5.157,1.175,8.969,-8.961,2.693,0.020,-0.137,-0.090,-0.340,0.208,1.166,-0.081,0.064,1.422,0.000,0.000,0.000,0.000,0.000,0.000
5.475,0.000,0.000,0.000,4.082,-5.171,1.157,9.063,-9.080,2.719,0.066,-0.114,-0.049,-0.341,0.205,1.165,-0.086,0.067,1.421,0.000,0.000,0.000,0.000,0.000,0.000
5.504,0.000,0.000,0.000,4.081,-5.189,1.127,9.214,-9.271,2.762,0.095,-0.202,-0.054,-0.342,0.203,1.164,-0.097,0.065,1.409,0.000,0.000,0.000,0.000,0.000,0.000
5.535,0.000,0.000,0.000,4.078,-5.195,1.113,9.295,-9.375,2.784,0.060,-0.269,-0.097,-0.342,0.199,1.162,-0.100,0.060,1.402,0.000,0.000,0.000,0.000,0.000,0.000
5.562,0.000,0.000,0.000,4.070,-5.202,1.089,9.458,-9.583,2.828,0.065,-0.192,-0.081,-0.342,0.196,1.161,-0.108,0.055,1.402,0.000,0.000,0.000,0.000,0.000,0.000
5.592,0.000,0.000,0.000,4.065,-5.203,1.083,9.540,-9.687,2.850,0.145,0.051,0.032,-0.341,0.192,1.159,-0.112,0.058,1.404,0.000,0.000,0.000,0.000,0.000,0.000
5.623,0.000,0.000,0.000,4.054,-5.202,1.077,9.702,-9.895,2.893,0.221,0.029,0.086,-0.341,0.190,1.158,-0.124,0.059,1.390,0.000,0.000,0.000,0.000,0.000,0.000
5.648,0.000,0.000,0.000,4.050,-5.200,1.078,9.783,-9.999,2.915,0.318,-0.068,0.092,-0.338,0.186,1.157,-0.130,0.058,1.398,0.000,0.000,0.000,0.000,0.000,0.000
5.674,0.000,0.000,0.000,4.047,-5.198,1.080,9.864,-10.103,2.936,0.327,-0.078,0.066,-0.336,0.184,1.157,-0.134,0.048,1.398,0.000,0.000,0.000,0.000,0.000,0.000
5.700,0.000,0.000,0.000,4.044,-5.193,1.088,10.026,-10.311,2.980,0.314,-0.089,-0.049,-0.333,0.182,1.157,-0.150,0.046,1.372,0.000,0.000,0.000,0.000,0.000,0.000
5.724,0.000,0.000,0.000,4.042,-5.190,1.091,10.107,-10.415,3.001,0.369,-0.127,0.001,-0.330,0.181,1.157,-0.158,0.044,1.367,0.000,0.000,0.000,0.000,0.000,0.000
5.749,0.000,0.000,0.000,4.042,-5.189,1.093,10.188,-10.519,3.023,-0.279,-0.660,-0.238,-0.324,0.177,1.156,-0.152,0.033,1.349,0.000,0.000,0.000,0.000,0.000,0.000
5.775,0.000,0.000,0.000,4.042,-5.192,1.095,10.268,-10.623,3.045,-1.156,-0.601,-0.423,-0.323,0.173,1.155,-0.146,0.020,1.340,0.000,0.000,0.000,0.000,0.000,0.000
5.800,0.000,0.000,0.000,4.034,-5.210,1.108,10.430,-10.831,3.089,-1.523,-0.013,-0.456,-0.324,0.169,1.153,-0.074,0.018,1.406,0.000,0.000,0.000,0.000,0.000,0.000
5.825,0.000,0.000,0.000,4.024,-5.224,1.116,10.511,-10.935,3.111,-1.111,0.696,-0.070,-0.328,0.166,1.151,-0.046,0.045,1.412,0.000,0.000,0.000,0.000,0.000,0.000
5.851,0.000,0.000,0.000,4.013,-5.237,1.122,10.591,-11.039,3.134,0.181,0.590,0.665,-0.338,0.165,1.148,-0.039,0.066,1.405,0.000,0.000,0.000,0.000,0.000,0.000
5.875,0.000,0.000,0.000,4.002,-5.261,1.121,10.751,-11.249,3.179,0.301,-0.321,0.673,-0.342,0.166,1.149,-0.052,0.056,1.396,0.000,0.000,0.000,0.000,0.000,0.000
5.899,0.000,0.000,0.000,4.005,-5.272,1.121,10.831,-11.355,3.201,0.049,-0.968,0.415,-0.345,0.166,1.151,-0.050,0.024,1.407,0.000,0.000,0.000,0.000,0.000,0.000
5.925,0.000,0.000,0.000,4.011,-5.283,1.123,10.911,-11.460,3.223,-0.098,-1.064,-0.046,-0.348,0.163,1.153,-0.048,0.003,1.428,0.000,0.000,0.000,0.000,0.000,0.000
5.948,0.000,0.000,0.000,4.016,-5.293,1.125,10.992,-11.566,3.246,0.154,-0.149,-0.264,-0.353,0.155,1.155,-0.046,-0.010,1.425,0.000,0.000,0.000,0.000,0.000,0.000
5.972,0.000,0.000,0.000,4.020,-5.303,1.127,11.072,-11.672,3.268,0.219,0.563,-0.139,-0.355,0.152,1.156,-0.050,-0.012,1.414,0.000,0.000,0.000,0.000,0.000,0.000
5.997,0.000,0.000,0.000,4.027,-5.319,1.123,11.233,-11.884,3.313,0.205,0.457,-0.097,-0.356,0.150,1.155,-0.060,0.009,1.387,0.000,0.000,0.000,0.000,0.000,0.000
6.023,0.000,0.000,0.000,4.031,-5.326,1.117,11.314,-11.991,3.336,0.172,0.308,-0.106,-0.357,0.148,1.155,-0.065,0.013,1.370,0.000,0.000,0.000,0.000,0.000,0.000
6.047,0.000,0.000,0.000,4.035,-5.332,1.109,11.406,-12.114,3.361,0.210,0.144,-0.087,-0.357,0.148,1.154,-0.068,0.018,1.355,0.000,0.000,0.000,0.000,0.000,0.000
6.071,0.000,0.000,0.000,4.039,-5.336,1.103,11.475,-12.204,3.380,0.310,0.056,-0.065,-0.356,0.148,1.153,-0.074,0.017,1.352,0.000,0.000,0.000,0.000,0.000,0.000
6.096,0.000,0.000,0.000,4.051,-5.343,1.089,11.637,-12.418,3.424,0.382,0.045,-0.061,-0.355,0.148,1.152,-0.088,0.015,1.342,0.000,0.000,0.000,0.000,0.000,0.000
6.122,0.000,0.000,0.000,4.058,-5.345,1.082,11.718,-12.525,3.446,0.421,0.097,-0.054,-0.353,0.148,1.152,-0.095,0.017,1.330,0.000,0.000,0.000,0.000,0.000,0.000
6.149,0.000,0.000,0.000,4.064,-5.347,1.075,11.799,-12.632,3.467,0.445,0.283,0.029,-0.347,0.150,1.150,-0.108,0.018,1.343,0.000,0.000,0.000,0.000,0.000,0.000
6.178,0.000,0.000,0.000,4.078,-5.348,1.060,11.962,-12.846,3.510,0.385,0.389,0.095,-0.343,0.151,1.149,-0.129,0.030,1.318,0.000,0.000,0.000,0.000,0.000,0.000
6.205,0.000,0.000,0.000,4.084,-5.346,1.054,12.044,-12.952,3.531,0.312,0.420,0.171,-0.339,0.154,1.149,-0.135,0.037,1.327,0.000,0.000,0.000,0.000,0.000,0.000
6.231,0.000,0.000,0.000,4.090,-5.343,1.048,12.129,-13.065,3.553,0.309,0.352,0.159,-0.331,0.159,1.150,-0.144,0.044,1.324,0.000,0.000,0.000,0.000,0.000,0.000
6.259,0.000,0.000,0.000,4.100,-5.336,1.043,12.289,-13.273,3.594,0.325,0.259,0.177,-0.326,0.163,1.150,-0.157,0.057,1.301,0.000,0.000,0.000,0.000,0.000,0.000
6.286,0.000,0.000,0.000,4.104,-5.332,1.043,12.371,-13.380,3.615,0.204,0.243,0.204,-0.316,0.170,1.153,-0.162,0.060,1.301,0.000,0.000,0.000,0.000,0.000,0.000
6.314,0.000,0.000,0.000,4.107,-5.330,1.042,12.453,-13.486,3.636,-0.144,0.048,0.143,-0.312,0.174,1.154,-0.162,0.061,1.312,0.000,0.000,0.000,0.000,0.000,0.000
6.342,0.000,0.000,0.000,4.115,-5.332,1.049,12.618,-13.699,3.678,-0.649,-0.268,-0.064,-0.309,0.177,1.156,-0.129,0.057,1.365,0.000,0.000,0.000,0.000,0.000,0.000
6.369,0.000,0.000,0.000,4.116,-5.340,1.061,12.700,-13.806,3.699,-0.465,-0.066,-0.062,-0.307,0.181,1.158,-0.113,0.052,1.388,0.000,0.000,0.000,0.000,0.000,0.000
6.398,0.000,0.000,0.000,4.116,-5.362,1.089,12.865,-14.020,3.742,-0.061,0.021,0.130,-0.307,0.182,1.158,-0.092,0.053,1.407,0.000,0.000,0.000,0.000,0.000,0.000
6.425,0.000,0.000,0.000,4.117,-5.376,1.101,12.947,-14.128,3.764,-0.007,-0.119,0.188,-0.308,0.184,1.160,-0.082,0.048,1.388,0.000,0.000,0.000,0.000,0.000,0.000
6.451,0.000,0.000,0.000,4.118,-5.390,1.113,13.029,-14.235,3.786,-0.381,-0.001,0.062,-0.310,0.185,1.162,-0.077,0.044,1.389,0.000,0.000,0.000,0.000,0.000,0.000
6.480,0.000,0.000,0.000,4.119,-5.419,1.134,13.194,-14.451,3.831,-0.255,0.193,0.084,-0.312,0.186,1.163,-0.059,0.049,1.424,0.000,0.000,0.000,0.000,0.000,0.000
6.508,0.000,0.000,0.000,4.120,-5.432,1.139,13.276,-14.560,3.853,0.159,0.065,0.127,-0.315,0.188,1.166,-0.059,0.051,1.419,0.000,0.000,0.000,0.000,0.000,0.000
6.534,0.000,0.000,0.000,4.121,-5.445,1.141,13.359,-14.669,3.876,0.184,-0.024,0.044,-0.316,0.189,1.168,-0.062,0.052,1.403,0.000,0.000,0.000,0.000,0.000,0.000
6.563,0.000,0.000,0.000,4.123,-5.465,1.133,13.524,-14.887,3.922,0.160,0.039,-0.006,-0.317,0.190,1.169,-0.072,0.054,1.379,0.000,0.000,0.000,0.000,0.000,0.000
6.590,0.000,0.000,0.000,4.124,-5.472,1.122,13.606,-14.996,3.944,0.189,0.022,-0.033,-0.317,0.192,1.171,-0.082,0.062,1.355,0.000,0.000,0.000,0.000,0.000,0.000
6.617,0.000,0.000,0.000,4.120,-5.482,1.093,13.771,-15.215,3.989,0.166,-0.178,-0.020,-0.316,0.193,1.173,-0.093,0.067,1.352,0.000,0.000,0.000,0.000,0.000,0.000
6.648,0.000,0.000,0.000,4.116,-5.485,1.077,13.853,-15.325,4.010,0.224,-0.257,0.189,-0.315,0.193,1.174,-0.096,0.061,1.367,0.000,0.000,0.000,0.000,0.000,0.000
6.677,0.000,0.000,0.000,4.103,-5.487,1.047,14.018,-15.544,4.053,0.268,-0.199,0.272,-0.313,0.193,1.176,-0.111,0.056,1.352,0.000,0.000,0.000,0.000,0.000,0.000
6.707,0.000,0.000,0.000,4.096,-5.485,1.034,14.104,-15.660,4.075,0.302,-0.031,0.299,-0.309,0.191,1.180,-0.123,0.056,1.341,0.000,0.000,0.000,0.000,0.000,0.000
6.735,0.000,0.000,0.000,4.083,-5.478,1.015,14.263,-15.873,4.114,0.360,-0.010,0.297,-0.306,0.190,1.182,-0.139,0.054,1.344,0.000,0.000,0.000,0.000,0.000,0.000
6.765,0.000,0.000,0.000,4.077,-5.473,1.008,14.345,-15.983,4.135,0.445,-0.142,0.238,-0.299,0.188,1.188,-0.146,0.051,1.376,0.000,0.000,0.000,0.000,0.000,0.000
6.795,0.000,0.000,0.000,4.067,-5.463,1.002,14.508,-16.202,4.175,0.440,-0.131,0.247,-0.295,0.187,1.192,-0.164,0.043,1.362,0.000,0.000,0.000,0.000,0.000,0.000
6.829,0.000,0.000,0.000,4.065,-5.458,1.001,14.589,-16.311,4.195,0.431,-0.130,0.169,-0.285,0.184,1.199,-0.173,0.033,1.344,0.000,0.000,0.000,0.000,0.000,0.000
6.858,0.000,0.000,0.000,4.065,-5.449,1.002,14.752,-16.529,4.235,0.411,-0.094,0.075,-0.280,0.182,1.202,-0.190,0.024,1.342,0.000,0.000,0.000,0.000,0.000,0.000
6.886,0.000,0.000,0.000,4.068,-5.444,0.998,14.841,-16.649,4.257,-0.169,-0.575,-0.184,-0.269,0.178,1.208,-0.194,0.020,1.352,0.000,0.000,0.000,0.000,0.000,0.000
6.919,0.000,0.000,0.000,4.077,-5.444,0.992,14.996,-16.856,4.295,-0.971,-0.764,-0.442,-0.266,0.175,1.209,-0.160,-0.013,1.409,0.000,0.000,0.000,0.000,0.000,0.000
6.948,0.000,0.000,0.000,4.081,-5.450,0.994,15.078,-16.965,4.315,-0.845,0.604,-0.246,-0.266,0.168,1.210,-0.122,-0.006,1.431,0.000,0.000,0.000,0.000,0.000,0.000
6.976,0.000,0.000,0.000,4.082,-5.466,0.993,15.241,-17.183,4.354,-0.132,0.898,0.227,-0.268,0.166,1.210,-0.105,0.025,1.419,0.000,0.000,0.000,0.000,0.000,0.000
7.007,0.000,0.000,0.000,4.083,-5.473,0.985,15.323,-17.292,4.374,0.046,-0.171,0.326,-0.271,0.167,1.211,-0.110,0.033,1.387,0.000,0.000,0.000,0.000,0.000,0.000
7.036,0.000,0.000,0.000,4.090,-5.490,0.967,15.486,-17.512,4.413,-0.506,-0.501,0.151,-0.273,0.166,1.213,-0.095,0.010,1.423,0.000,0.000,0.000,0.000,0.000,0.000
7.065,0.000,0.000,0.000,4.096,-5.500,0.962,15.568,-17.622,4.432,-0.628,-0.296,-0.143,-0.280,0.163,1.215,-0.072,-0.003,1.443,0.000,0.000,0.000,0.000,0.000,0.000
7.093,0.000,0.000,0.000,4.101,-5.509,0.959,15.650,-17.732,4.452,-0.264,0.031,-0.130,-0.284,0.161,1.216,-0.061,-0.008,1.440,0.000,0.000,0.000,0.000,0.000,0.000
7.122,0.000,0.000,0.000,4.109,-5.526,0.949,15.814,-17.952,4.490,-0.083,0.210,-0.119,-0.288,0.160,1.217,-0.055,-0.001,1.445,0.000,0.000,0.000,0.000,0.000,0.000
7.155,0.000,0.000,0.000,4.114,-5.538,0.933,15.978,-18.174,4.527,-0.153,0.137,-0.122,-0.297,0.158,1.217,-0.057,0.005,1.428,0.000,0.000,0.000,0.000,0.000,0.000
7.185,0.000,0.000,0.000,4.116,-5.541,0.923,16.065,-18.290,4.547,-0.104,0.097,-0.061,-0.301,0.158,1.216,-0.060,0.008,1.420,0.000,0.000,0.000,0.000,0.000,0.000
7.215,0.000,0.000,0.000,4.122,-5.541,0.898,16.226,-18.506,4.582,0.072,0.040,-0.112,-0.307,0.158,1.216,-0.072,0.007,1.408,0.000,0.000,0.000,0.000,0.000,0.000
7.243,0.000,0.000,0.000,4.125,-5.539,0.883,16.308,-18.617,4.600,0.005,0.010,-0.180,-0.310,0.158,1.215,-0.072,0.008,1.404,0.000,0.000,0.000,0.000,0.000,0.000
7.273,0.000,0.000,0.000,4.129,-5.537,0.869,16.391,-18.728,4.618,-0.066,-0.097,-0.230,-0.315,0.158,1.213,-0.075,0.006,1.406,0.000,0.000,0.000,0.000,0.000,0.000
7.304,0.000,0.000,0.000,4.137,-5.529,0.845,16.556,-18.949,4.652,-0.048,-0.095,-0.189,-0.317,0.157,1.211,-0.076,0.002,1.394,0.000,0.000,0.000,0.000,0.000,0.000
7.332,0.000,0.000,0.000,4.141,-5.525,0.837,16.639,-19.060,4.669,0.192,0.154,-0.040,-0.321,0.157,1.207,-0.076,0.003,1.380,0.000,0.000,0.000,0.000,0.000,0.000
7.361,0.000,0.000,0.000,4.148,-5.515,0.825,16.804,-19.280,4.702,0.268,0.198,0.002,-0.321,0.157,1.206,-0.089,0.008,1.349,0.000,0.000,0.000,0.000,0.000,0.000
7.393,0.000,0.000,0.000,4.153,-5.509,0.821,16.887,-19.391,4.719,0.123,0.108,-0.057,-0.322,0.158,1.203,-0.096,0.008,1.319,0.000,0.000,0.000,0.000,0.000,0.000
7.423,0.000,0.000,0.000,4.162,-5.498,0.818,17.054,-19.611,4.751,0.037,0.147,-0.097,-0.322,0.159,1.201,-0.094,0.010,1.314,0.000,0.000,0.000,0.000,0.000,0.000
7.453,0.000,0.000,0.000,4.168,-5.495,0.818,17.145,-19.732,4.769,-0.453,0.099,-0.272,-0.322,0.162,1.198,-0.090,0.013,1.341,0.000,0.000,0.000,0.000,0.000,0.000
7.483,0.000,0.000,0.000,4.179,-5.496,0.824,17.304,-19.940,4.800,-0.726,0.184,-0.456,-0.324,0.163,1.196,-0.055,0.020,1.372,0.000,0.000,0.000,0.000,0.000,0.000
7.513,0.000,0.000,0.000,4.180,-5.503,0.833,17.396,-20.061,4.819,-0.341,0.144,-0.324,-0.330,0.167,1.189,-0.032,0.033,1.364,0.000,0.000,0.000,0.000,0.000,0.000
7.543,0.000,0.000,0.000,4.178,-5.520,0.852,17.559,-20.276,4.852,-0.203,-0.249,-0.243,-0.333,0.169,1.186,-0.011,0.033,1.356,0.000,0.000,0.000,0.000,0.000,0.000
7.574,0.000,0.000,0.000,4.175,-5.532,0.862,17.647,-20.392,4.870,-0.492,-0.462,-0.348,-0.341,0.170,1.178,-0.005,0.022,1.345,0.000,0.000,0.000,0.000,0.000,0.000
7.602,0.000,0.000,0.000,4.167,-5.556,0.881,17.805,-20.603,4.903,-0.564,-0.149,-0.327,-0.346,0.169,1.173,0.024,0.015,1.367,0.000,0.000,0.000,0.000,0.000,0.000
7.632,0.000,0.000,0.000,4.161,-5.569,0.889,17.893,-20.720,4.921,-0.090,0.307,-0.050,-0.357,0.168,1.165,0.032,0.023,1.348,0.000,0.000,0.000,0.000,0.000,0.000
7.662,0.000,0.000,0.000,4.148,-5.589,0.891,18.055,-20.937,4.956,0.104,0.246,0.018,-0.362,0.168,1.161,0.024,0.041,1.312,0.000,0.000,0.000,0.000,0.000,0.000
7.692,0.000,0.000,0.000,4.140,-5.595,0.883,18.137,-21.049,4.974,0.123,-0.078,0.043,-0.370,0.170,1.154,0.022,0.043,1.291,0.000,0.000,0.000,0.000,0.000,0.000
7.724,0.000,0.000,0.000,4.124,-5.604,0.859,18.303,-21.273,5.009,0.106,-0.215,0.094,-0.372,0.170,1.151,0.012,0.041,1.290,0.000,0.000,0.000,0.000,0.000,0.000
7.755,0.000,0.000,0.000,4.116,-5.606,0.839,18.397,-21.402,5.028,0.016,-0.301,0.114,-0.377,0.170,1.147,0.006,0.039,1.271,0.000,0.000,0.000,0.000,0.000,0.000
7.781,0.000,0.000,0.000,4.100,-5.606,0.805,18.549,-21.610,5.059,-0.100,-0.209,0.142,-0.379,0.168,1.146,0.002,0.036,1.276,0.000,0.000,0.000,0.000,0.000,0.000
7.810,0.000,0.000,0.000,4.091,-5.604,0.787,18.631,-21.722,5.074,-0.761,0.463,0.478,-0.383,0.166,1.145,0.009,0.036,1.305,0.000,0.000,0.000,0.000,0.000,0.000
7.836,0.000,0.000,0.000,4.076,-5.596,0.762,18.795,-21.946,5.105,-0.586,0.544,0.423,-0.387,0.167,1.146,0.031,0.055,1.320,0.000,0.000,0.000,0.000,0.000,0.000
7.861,0.000,0.000,0.000,4.070,-5.591,0.757,18.876,-22.058,5.121,-0.115,0.451,0.330,-0.392,0.168,1.148,0.025,0.064,1.304,0.000,0.000,0.000,0.000,0.000,0.000
7.888,0.000,0.000,0.000,4.064,-5.583,0.753,18.958,-22.169,5.136,0.579,-0.046,0.203,-0.398,0.172,1.152,0.019,0.068,1.295,0.000,0.000,0.000,0.000,0.000,0.000
7.914,0.000,0.000,0.000,4.059,-5.574,0.750,19.039,-22.281,5.151,0.457,-0.106,0.117,-0.399,0.173,1.155,-0.003,0.067,1.267,0.000,0.000,0.000,0.000,0.000,0.000
7.939,0.000,0.000,0.000,4.050,-5.552,0.745,19.201,-22.503,5.181,0.309,-0.044,0.033,-0.399,0.174,1.157,-0.021,0.065,1.252,0.000,0.000,0.000,0.000,0.000,0.000
7.965,0.000,0.000,0.000,4.044,-5.541,0.746,19.282,-22.614,5.196,0.346,-0.034,0.004,-0.399,0.175,1.159,-0.026,0.064,1.261,0.000,0.000,0.000,0.000,0.000,0.000
7.991,0.000,0.000,0.000,4.039,-5.531,0.747,19.363,-22.725,5.210,0.619,-0.342,-0.040,-0.395,0.176,1.163,-0.042,0.066,1.271,0.000,0.000,0.000,0.000,0.000,0.000
8.018,0.000,0.000,0.000,4.026,-5.509,0.742,19.524,-22.946,5.240,0.391,-0.496,-0.100,-0.392,0.176,1.164,-0.063,0.044,1.263,0.000,0.000,0.000,0.000,0.000,0.000
8.046,0.000,0.000,0.000,4.022,-5.500,0.736,19.604,-23.056,5.255,-1.195,-1.487,-0.660,-0.388,0.170,1.165,-0.055,0.026,1.243,0.000,0.000,0.000,0.000,0.000,0.000
8.077,0.000,0.000,0.000,4.018,-5.497,0.745,19.765,-23.276,5.285,-1.426,-1.593,-0.954,-0.389,0.163,1.163,0.013,-0.039,1.293,0.000,0.000,0.000,0.000,0.000,0.000
8.107,0.000,0.000,0.000,4.014,-5.501,0.760,19.846,-23.386,5.300,0.177,0.237,-0.192,-0.397,0.145,1.156,0.035,-0.047,1.259,0.000,0.000,0.000,0.000,0.000,0.000
8.135,0.000,0.000,0.000,4.003,-5.513,0.784,20.006,-23.606,5.331,0.732,0.531,0.271,-0.400,0.139,1.152,0.015,-0.035,1.224,0.000,0.000,0.000,0.000,0.000,0.000
8.164,0.000,0.000,0.000,4.001,-5.517,0.788,20.086,-23.716,5.346,0.582,0.128,0.362,-0.401,0.134,1.150,0.006,-0.033,1.205,0.000,0.000,0.000,0.000,0.000,0.000
8.195,0.000,0.000,0.000,4.004,-5.528,0.792,20.246,-23.937,5.378,-0.290,-0.048,-0.037,-0.401,0.124,1.146,0.017,-0.049,1.234,0.000,0.000,0.000,0.000,0.000,0.000
8.223,0.000,0.000,0.000,4.006,-5.533,0.792,20.326,-24.048,5.394,-0.206,0.334,-0.236,-0.402,0.120,1.145,0.021,-0.040,1.248,0.000,0.000,0.000,0.000,0.000,0.000
8.252,0.000,0.000,0.000,4.008,-5.537,0.787,20.410,-24.164,5.410,0.151,0.776,-0.151,-0.404,0.116,1.142,0.021,-0.028,1.247,0.000,0.000,0.000,0.000,0.000,0.000
8.282,0.000,0.000,0.000,4.007,-5.543,0.766,20.567,-24.380,5.441,0.122,0.786,-0.100,-0.404,0.117,1.140,0.013,0.008,1.214,0.000,0.000,0.000,0.000,0.000,0.000
8.314,0.000,0.000,0.000,4.005,-5.544,0.749,20.651,-24.497,5.457,-0.169,0.409,-0.048,-0.405,0.122,1.136,0.009,0.027,1.208,0.000,0.000,0.000,0.000,0.000,0.000
8.343,0.000,0.000,0.000,3.999,-5.544,0.716,20.807,-24.713,5.485,-0.242,0.178,0.034,-0.406,0.125,1.134,0.013,0.036,1.204,0.000,0.000,0.000,0.000,0.000,0.000
8.373,0.000,0.000,0.000,3.997,-5.541,0.700,20.891,-24.829,5.500,0.048,0.026,0.149,-0.408,0.131,1.131,0.015,0.037,1.221,0.000,0.000,0.000,0.000,0.000,0.000
8.403,0.000,0.000,0.000,3.996,-5.533,0.670,21.047,-25.045,5.527,0.122,0.045,0.137,-0.409,0.134,1.131,0.003,0.037,1.211,0.000,0.000,0.000,0.000,0.000,0.000
8.432,0.000,0.000,0.000,3.996,-5.527,0.656,21.127,-25.156,5.540,0.161,0.082,0.167,-0.409,0.139,1.130,-0.006,0.037,1.206,0.000,0.000,0.000,0.000,0.000,0.000
8.462,0.000,0.000,0.000,3.999,-5.511,0.634,21.286,-25.377,5.566,0.228,0.073,0.158,-0.409,0.141,1.131,-0.020,0.036,1.181,0.000,0.000,0.000,0.000,0.000,0.000
8.491,0.000,0.000,0.000,4.001,-5.502,0.627,21.366,-25.487,5.578,0.428,0.271,0.145,-0.407,0.146,1.132,-0.026,0.040,1.174,0.000,0.000,0.000,0.000,0.000,0.000
8.521,0.000,0.000,0.000,4.005,-5.484,0.620,21.526,-25.706,5.603,0.513,0.222,0.169,-0.405,0.149,1.133,-0.045,0.048,1.176,0.000,0.000,0.000,0.000,0.000,0.000
8.550,0.000,0.000,0.000,4.007,-5.476,0.621,21.607,-25.816,5.616,0.408,0.143,0.147,-0.399,0.155,1.136,-0.053,0.049,1.194,0.000,0.000,0.000,0.000,0.000,0.000
8.582,0.000,0.000,0.000,4.010,-5.466,0.626,21.767,-26.035,5.641,0.389,0.292,0.182,-0.395,0.158,1.138,-0.058,0.052,1.198,0.000,0.000,0.000,0.000,0.000,0.000
8.612,0.000,0.000,0.000,4.014,-5.465,0.628,21.847,-26.144,5.653,-0.431,-0.044,-0.065,-0.387,0.164,1.141,-0.060,0.054,1.242,0.000,0.000,0.000,0.000,0.000,0.000
8.641,0.000,0.000,0.000,4.019,-5.474,0.641,22.008,-26.363,5.679,-0.676,-0.138,-0.219,-0.385,0.166,1.142,-0.023,0.051,1.288,0.000,0.000,0.000,0.000,0.000,0.000
8.671,0.000,0.000,0.000,4.020,-5.485,0.654,22.088,-26.472,5.692,-0.112,-0.371,0.017,-0.384,0.169,1.144,-0.002,0.046,1.312,0.000,0.000,0.000,0.000,0.000,0.000
8.701,0.000,0.000,0.000,4.021,-5.509,0.676,22.249,-26.692,5.718,-0.143,-0.276,0.033,-0.384,0.169,1.144,0.009,0.031,1.305,0.000,0.000,0.000,0.000,0.000,0.000
8.732,0.000,0.000,0.000,4.022,-5.522,0.685,22.329,-26.803,5.732,-0.523,0.241,-0.071,-0.386,0.169,1.145,0.017,0.031,1.283,0.000,0.000,0.000,0.000,0.000,0.000
8.763,0.000,0.000,0.000,4.023,-5.547,0.695,22.490,-27.024,5.759,-0.408,0.310,-0.050,-0.388,0.170,1.145,0.038,0.045,1.292,0.000,0.000,0.000,0.000,0.000,0.000
8.792,0.000,0.000,0.000,4.022,-5.557,0.696,22.571,-27.135,5.773,-0.054,0.090,0.000,-0.394,0.173,1.146,0.040,0.054,1.270,0.000,0.000,0.000,0.000,0.000,0.000
8.825,0.000,0.000,0.000,4.017,-5.572,0.687,22.732,-27.358,5.801,0.049,0.081,0.037,-0.396,0.174,1.146,0.032,0.062,1.271,0.000,0.000,0.000,0.000,0.000,0.000
8.853,0.000,0.000,0.000,4.014,-5.576,0.677,22.812,-27.469,5.815,0.271,0.067,0.227,-0.400,0.177,1.146,0.029,0.064,1.284,0.000,0.000,0.000,0.000,0.000,0.000
8.885,0.000,0.000,0.000,4.005,-5.576,0.649,22.972,-27.692,5.841,0.378,-0.029,0.277,-0.400,0.178,1.148,0.005,0.069,1.277,0.000,0.000,0.000,0.000,0.000,0.000
8.914,0.000,0.000,0.000,4.001,-5.572,0.634,23.052,-27.804,5.854,0.419,-0.362,0.235,-0.399,0.179,1.151,-0.012,0.069,1.255,0.000,0.000,0.000,0.000,0.000,0.000
8.942,0.000,0.000,0.000,3.991,-5.561,0.604,23.212,-28.026,5.879,0.463,-0.351,0.233,-0.397,0.179,1.153,-0.038,0.056,1.242,0.000,0.000,0.000,0.000,0.000,0.000
8.971,0.000,0.000,0.000,3.985,-5.553,0.591,23.292,-28.138,5.891,0.408,-0.035,0.184,-0.392,0.177,1.158,-0.047,0.052,1.259,0.000,0.000,0.000,0.000,0.000,0.000
9.002,0.000,0.000,0.000,3.973,-5.536,0.570,23.451,-28.359,5.914,0.330,0.121,0.126,-0.388,0.176,1.160,-0.065,0.057,1.232,0.000,0.000,0.000,0.000,0.000,0.000
9.036,0.000,0.000,0.000,3.960,-5.519,0.559,23.610,-28.580,5.936,0.421,0.134,0.130,-0.380,0.175,1.166,-0.083,0.064,1.266,0.000,0.000,0.000,0.000,0.000,0.000
9.062,0.000,0.000,0.000,3.955,-5.511,0.557,23.689,-28.691,5.948,0.516,-0.060,0.073,-0.375,0.175,1.168,-0.095,0.061,1.254,0.000,0.000,0.000,0.000,0.000,0.000
9.089,0.000,0.000,0.000,3.950,-5.502,0.556,23.768,-28.801,5.959,0.424,0.033,-0.097,-0.364,0.175,1.173,-0.105,0.061,1.303,0.000,0.000,0.000,0.000,0.000,0.000
9.115,0.000,0.000,0.000,3.948,-5.488,0.554,23.926,-29.021,5.981,-0.086,-0.213,-0.343,-0.359,0.174,1.174,-0.112,0.047,1.283,0.000,0.000,0.000,0.000,0.000,0.000
9.141,0.000,0.000,0.000,3.950,-5.486,0.558,24.005,-29.130,5.992,-0.900,-0.486,-0.750,-0.354,0.173,1.174,-0.078,0.036,1.318,0.000,0.000,0.000,0.000,0.000,0.000
9.167,0.000,0.000,0.000,3.951,-5.489,0.568,24.084,-29.240,6.003,-0.695,0.221,-0.721,-0.353,0.170,1.170,-0.055,0.033,1.318,0.000,0.000,0.000,0.000,0.000,0.000
9.193,0.000,0.000,0.000,3.951,-5.495,0.583,24.167,-29.355,6.015,0.116,0.400,-0.219,-0.355,0.170,1.166,-0.032,0.044,1.324,0.000,0.000,0.000,0.000,0.000,0.000
9.220,0.000,0.000,0.000,3.948,-5.511,0.603,24.321,-29.570,6.039,0.453,0.149,0.133,-0.355,0.170,1.163,-0.040,0.049,1.304,0.000,0.000,0.000,0.000,0.000,0.000
9.246,0.000,0.000,0.000,3.949,-5.520,0.606,24.400,-29.680,6.051,-0.507,-0.431,-0.083,-0.355,0.169,1.157,-0.042,0.044,1.261,0.000,0.000,0.000,0.000,0.000,0.000
9.272,0.000,0.000,0.000,3.952,-5.530,0.612,24.479,-29.791,6.063,-0.470,-0.431,-0.171,-0.356,0.167,1.155,-0.025,0.031,1.266,0.000,0.000,0.000,0.000,0.000,0.000
9.300,0.000,0.000,0.000,3.958,-5.551,0.627,24.637,-30.012,6.088,0.087,-0.127,-0.081,-0.358,0.165,1.152,-0.016,0.019,1.253,0.000,0.000,0.000,0.000,0.000,0.000
9.326,0.000,0.000,0.000,3.961,-5.560,0.630,24.716,-30.124,6.100,0.720,0.403,0.110,-0.358,0.162,1.148,-0.028,0.024,1.216,0.000,0.000,0.000,0.000,0.000,0.000
9.353,0.000,0.000,0.000,3.963,-5.568,0.626,24.795,-30.235,6.113,0.545,0.395,0.119,-0.356,0.162,1.146,-0.051,0.035,1.195,0.000,0.000,0.000,0.000,0.000,0.000
9.380,0.000,0.000,0.000,3.968,-5.577,0.603,24.954,-30.458,6.137,0.396,0.249,0.126,-0.353,0.163,1.145,-0.078,0.044,1.174,0.000,0.000,0.000,0.000,0.000,0.000
9.408,0.000,0.000,0.000,3.972,-5.579,0.585,25.034,-30.569,6.149,0.228,-0.027,0.029,-0.347,0.165,1.144,-0.083,0.045,1.215,0.000,0.000,0.000,0.000,0.000,0.000
9.436,0.000,0.000,0.000,3.981,-5.579,0.547,25.193,-30.792,6.172,0.158,-0.126,-0.066,-0.344,0.166,1.143,-0.095,0.039,1.213,0.000,0.000,0.000,0.000,0.000,0.000
9.462,0.000,0.000,0.000,3.985,-5.577,0.528,25.272,-30.904,6.183,0.123,-0.156,-0.122,-0.340,0.166,1.143,-0.103,0.037,1.207,0.000,0.000,0.000,0.000,0.000,0.000
9.488,0.000,0.000,0.000,3.989,-5.575,0.510,25.352,-31.016,6.193,0.082,-0.020,-0.020,-0.334,0.166,1.141,-0.106,0.035,1.167,0.000,0.000,0.000,0.000,0.000,0.000
9.516,0.000,0.000,0.000,3.994,-5.566,0.481,25.512,-31.238,6.213,-0.035,0.103,0.048,-0.331,0.166,1.140,-0.111,0.037,1.163,0.000,0.000,0.000,0.000,0.000,0.000
9.543,0.000,0.000,0.000,3.996,-5.560,0.471,25.592,-31.350,6.222,-0.078,0.178,0.108,-0.328,0.166,1.140,-0.114,0.043,1.141,0.000,0.000,0.000,0.000,0.000,0.000
9.569,0.000,0.000,0.000,3.996,-5.553,0.465,25.671,-31.461,6.232,0.228,0.237,0.222,-0.324,0.168,1.140,-0.113,0.046,1.095,0.000,0.000,0.000,0.000,0.000,0.000
9.595,0.000,0.000,0.000,3.994,-5.536,0.457,25.831,-31.683,6.250,0.381,0.170,0.283,-0.321,0.169,1.141,-0.123,0.053,1.084,0.000,0.000,0.000,0.000,0.000,0.000
9.621,0.000,0.000,0.000,3.992,-5.527,0.455,25.911,-31.793,6.259,0.406,0.090,0.286,-0.318,0.170,1.142,-0.138,0.057,1.061,0.000,0.000,0.000,0.000,0.000,0.000
9.648,0.000,0.000,0.000,3.990,-5.520,0.454,25.991,-31.904,6.268,0.084,-0.279,0.007,-0.311,0.173,1.145,-0.141,0.056,1.090,0.000,0.000,0.000,0.000,0.000,0.000
9.674,0.000,0.000,0.000,3.990,-5.515,0.454,26.071,-32.014,6.277,-0.711,-0.172,-0.147,-0.309,0.173,1.146,-0.131,0.047,1.117,0.000,0.000,0.000,0.000,0.000,0.000
9.701,0.000,0.000,0.000,3.986,-5.516,0.465,26.230,-32.235,6.296,-0.638,0.133,-0.081,-0.307,0.174,1.148,-0.090,0.053,1.164,0.000,0.000,0.000,0.000,0.000,0.000
9.728,0.000,0.000,0.000,3.981,-5.521,0.475,26.310,-32.345,6.305,-0.290,-0.078,0.277,-0.308,0.175,1.150,-0.081,0.056,1.114,0.000,0.000,0.000,0.000,0.000,0.000
9.755,0.000,0.000,0.000,3.970,-5.537,0.494,26.469,-32.566,6.324,-0.413,-0.242,0.266,-0.310,0.176,1.152,-0.065,0.053,1.119,0.000,0.000,0.000,0.000,0.000,0.000
9.782,0.000,0.000,0.000,3.964,-5.547,0.502,26.548,-32.677,6.334,-0.539,-0.127,0.242,-0.312,0.176,1.153,-0.039,0.046,1.129,0.000,0.000,0.000,0.000,0.000,0.000
9.809,0.000,0.000,0.000,3.959,-5.557,0.508,26.628,-32.788,6.345,-0.280,0.158,0.426,-0.318,0.176,1.159,-0.027,0.046,1.135,0.000,0.000,0.000,0.000,0.000,0.000
9.835,0.000,0.000,0.000,3.950,-5.573,0.510,26.786,-33.011,6.365,-0.149,0.103,0.453,-0.322,0.176,1.162,-0.019,0.050,1.152,0.000,0.000,0.000,0.000,0.000,0.000
9.860,0.000,0.000,0.000,3.946,-5.579,0.506,26.865,-33.122,6.375,-0.165,0.001,0.420,-0.325,0.177,1.166,-0.020,0.053,1.155,0.000,0.000,0.000,0.000,0.000,0.000
9.891,0.000,0.000,0.000,3.941,-5.583,0.499,26.944,-33.234,6.385,0.148,0.023,0.497,-0.332,0.177,1.175,-0.016,0.051,1.131,0.000,0.000,0.000,0.000,0.000,0.000
9.922,0.000,0.000,0.000,3.930,-5.586,0.477,27.101,-33.457,6.405,0.332,0.034,0.561,-0.334,0.178,1.181,-0.032,0.054,1.100,0.000,0.000,0.000,0.000,0.000,0.000
9.952,0.000,0.000,0.000,3.926,-5.584,0.462,27.180,-33.569,6.414,0.276,-0.021,0.443,-0.336,0.178,1.193,-0.052,0.056,1.094,0.000,0.000,0.000,0.000,0.000,0.000
9.982,0.000,0.000,0.000,3.916,-5.575,0.428,27.336,-33.792,6.432,0.210,0.015,0.326,-0.336,0.179,1.200,-0.066,0.056,1.128,0.000,0.000,0.000,0.000,0.000,0.000
10.012,0.000,0.000,0.000,3.911,-5.568,0.413,27.415,-33.903,6.440,0.324,0.104,0.220,-0.335,0.179,1.213,-0.069,0.056,1.155,0.000,0.000,0.000,0.000,0.000,0.000
10.041,0.000,0.000,0.000,3.902,-5.553,0.389,27.571,-34.126,6.456,0.348,0.054,0.171,-0.333,0.180,1.219,-0.085,0.058,1.168,0.000,0.000,0.000,0.000,0.000,0.000
10.073,0.000,0.000,0.000,3.899,-5.545,0.381,27.649,-34.237,6.464,0.440,0.046,0.021,-0.329,0.181,1.230,-0.098,0.057,1.132,0.000,0.000,0.000,0.000,0.000,0.000
10.102,0.000,0.000,0.000,3.894,-5.527,0.369,27.805,-34.458,6.479,0.354,0.087,-0.033,-0.325,0.182,1.235,-0.114,0.059,1.130,0.000,0.000,0.000,0.000,0.000,0.000
10.131,0.000,0.000,0.000,3.891,-5.518,0.365,27.890,-34.580,6.487,0.167,0.167,-0.097,-0.319,0.184,1.243,-0.115,0.061,1.098,0.000,0.000,0.000,0.000,0.000,0.000
10.161,0.000,0.000,0.000,3.886,-5.501,0.365,28.038,-34.789,6.501,0.239,0.110,-0.126,-0.315,0.185,1.246,-0.124,0.067,1.090,0.000,0.000,0.000,0.000,0.000,0.000
10.192,0.000,0.000,0.000,3.882,-5.491,0.364,28.116,-34.899,6.508,0.544,-0.051,-0.116,-0.306,0.188,1.251,-0.140,0.072,1.068,0.000,0.000,0.000,0.000,0.000,0.000
10.219,0.000,0.000,0.000,3.882,-5.473,0.355,28.271,-35.118,6.523,0.235,-0.580,-0.145,-0.302,0.188,1.252,-0.140,0.046,1.090,0.000,0.000,0.000,0.000,0.000,0.000
10.245,0.000,0.000,0.000,3.887,-5.471,0.357,28.349,-35.228,6.530,-0.731,-1.128,-0.484,-0.298,0.187,1.253,-0.123,0.024,1.100,0.000,0.000,0.000,0.000,0.000,0.000
10.271,0.000,0.000,0.000,3.891,-5.474,0.366,28.427,-35.337,6.537,-0.227,0.197,-0.307,-0.297,0.180,1.251,-0.078,0.010,1.148,0.000,0.000,0.000,0.000,0.000,0.000
10.296,0.000,0.000,0.000,3.894,-5.490,0.389,28.582,-35.557,6.552,0.264,0.213,0.154,-0.297,0.177,1.249,-0.068,0.017,1.125,0.000,0.000,0.000,0.000,0.000,0.000
10.322,0.000,0.000,0.000,3.896,-5.500,0.395,28.660,-35.666,6.560,0.119,-0.013,0.222,-0.297,0.175,1.248,-0.069,0.016,1.119,0.000,0.000,0.000,0.000,0.000,0.000
10.347,0.000,0.000,0.000,3.899,-5.510,0.398,28.742,-35.782,6.568,-0.298,-0.242,-0.059,-0.298,0.170,1.246,-0.060,0.009,1.148,0.000,0.000,0.000,0.000,0.000,0.000
10.373,0.000,0.000,0.000,3.903,-5.519,0.400,28.820,-35.892,6.576,0.038,-0.126,-0.100,-0.299,0.167,1.246,-0.053,0.003,1.157,0.000,0.000,0.000,0.000,0.000,0.000
10.399,0.000,0.000,0.000,3.909,-5.533,0.393,28.972,-36.108,6.592,0.275,0.075,-0.109,-0.299,0.165,1.245,-0.064,0.003,1.159,0.000,0.000,0.000,0.000,0.000,0.000
10.425,0.000,0.000,0.000,3.912,-5.538,0.379,29.055,-36.224,6.600,-0.018,0.304,-0.214,-0.299,0.162,1.243,-0.077,0.009,1.127,0.000,0.000,0.000,0.000,0.000,0.000
10.449,0.000,0.000,0.000,3.914,-5.541,0.362,29.133,-36.335,6.607,-0.154,0.283,-0.269,-0.299,0.161,1.241,-0.076,0.015,1.127,0.000,0.000,0.000,0.000,0.000,0.000
10.479,0.000,0.000,0.000,3.917,-5.543,0.322,29.286,-36.551,6.621,-0.199,0.192,-0.285,-0.299,0.161,1.239,-0.077,0.028,1.111,0.000,0.000,0.000,0.000,0.000,0.000
10.505,0.000,0.000,0.000,3.919,-5.541,0.299,29.364,-36.662,6.627,-0.216,0.059,-0.276,-0.300,0.162,1.237,-0.080,0.029,1.095,0.000,0.000,0.000,0.000,0.000,0.000
10.530,0.000,0.000,0.000,3.920,-5.538,0.278,29.442,-36.773,6.633,-0.314,-0.071,-0.282,-0.303,0.162,1.231,-0.073,0.028,1.126,0.000,0.000,0.000,0.000,0.000,0.000
10.558,0.000,0.000,0.000,3.923,-5.529,0.244,29.599,-36.994,6.643,-0.314,-0.023,-0.233,-0.305,0.162,1.228,-0.066,0.029,1.125,0.000,0.000,0.000,0.000,0.000,0.000
10.585,0.000,0.000,0.000,3.923,-5.523,0.234,29.678,-37.105,6.648,-0.255,0.075,-0.127,-0.307,0.162,1.225,-0.066,0.031,1.092,0.000,0.000,0.000,0.000,0.000,0.000
10.612,0.000,0.000,0.000,3.923,-5.516,0.229,29.756,-37.215,6.652,0.112,0.215,0.084,-0.312,0.163,1.219,-0.063,0.034,1.098,0.000,0.000,0.000,0.000,0.000,0.000
10.639,0.000,0.000,0.000,3.921,-5.496,0.230,29.913,-37.435,6.662,0.403,0.332,0.180,-0.314,0.164,1.217,-0.080,0.046,1.078,0.000,0.000,0.000,0.000,0.000,0.000
10.666,0.000,0.000,0.000,3.920,-5.484,0.232,29.991,-37.545,6.666,0.585,0.480,0.275,-0.313,0.169,1.215,-0.102,0.058,1.108,0.000,0.000,0.000,0.000,0.000,0.000
10.693,0.000,0.000,0.000,3.918,-5.471,0.233,30.070,-37.655,6.671,0.496,0.469,0.243,-0.311,0.173,1.214,-0.113,0.067,1.123,0.000,0.000,0.000,0.000,0.000,0.000
10.720,0.000,0.000,0.000,3.915,-5.448,0.237,30.226,-37.873,6.680,0.385,0.349,0.170,-0.309,0.176,1.215,-0.130,0.080,1.112,0.000,0.000,0.000,0.000,0.000,0.000
10.746,0.000,0.000,0.000,3.914,-5.442,0.242,30.305,-37.982,6.685,-0.331,-0.484,-0.299,-0.304,0.182,1.215,-0.117,0.076,1.150,0.000,0.000,0.000,0.000,0.000,0.000
10.772,0.000,0.000,0.000,3.911,-5.441,0.253,30.383,-38.091,6.690,-0.373,-0.414,-0.364,-0.303,0.184,1.214,-0.110,0.068,1.134,0.000,0.000,0.000,0.000,0.000,0.000
10.801,0.000,0.000,0.000,3.902,-5.452,0.281,30.539,-38.308,6.701,-0.077,-0.246,-0.189,-0.302,0.184,1.213,-0.085,0.059,1.176,0.000,0.000,0.000,0.000,0.000,0.000
10.829,0.000,0.000,0.000,3.898,-5.464,0.294,30.617,-38.418,6.706,0.087,-0.457,0.037,-0.301,0.184,1.211,-0.071,0.048,1.203,0.000,0.000,0.000,0.000,0.000,0.000
10.855,0.000,0.000,0.000,3.892,-5.495,0.312,30.773,-38.637,6.719,-0.184,-0.426,-0.049,-0.300,0.182,1.210,-0.074,0.040,1.213,0.000,0.000,0.000,0.000,0.000,0.000
10.880,0.000,0.000,0.000,3.888,-5.513,0.318,30.851,-38.747,6.725,-0.334,-0.111,-0.039,-0.300,0.180,1.209,-0.053,0.033,1.228,0.000,0.000,0.000,0.000,0.000,0.000
10.907,0.000,0.000,0.000,3.883,-5.530,0.319,30.929,-38.857,6.731,-0.092,0.518,0.297,-0.301,0.179,1.208,-0.046,0.046,1.209,0.000,0.000,0.000,0.000,0.000,0.000
10.933,0.000,0.000,0.000,3.878,-5.546,0.315,31.006,-38.968,6.738,-0.075,0.309,0.279,-0.302,0.179,1.209,-0.045,0.056,1.211,0.000,0.000,0.000,0.000,0.000,0.000
10.961,0.000,0.000,0.000,3.869,-5.573,0.296,31.161,-39.190,6.750,-0.056,0.056,0.264,-0.302,0.180,1.210,-0.049,0.067,1.196,0.000,0.000,0.000,0.000,0.000,0.000
10.988,0.000,0.000,0.000,3.865,-5.582,0.280,31.238,-39.302,6.756,-0.037,-0.170,0.235,-0.304,0.182,1.213,-0.058,0.067,1.231,0.000,0.000,0.000,0.000,0.000,0.000
11.016,0.000,0.000,0.000,3.858,-5.594,0.244,31.397,-39.531,6.766,-0.110,-0.236,0.191,-0.305,0.182,1.215,-0.063,0.057,1.225,0.000,0.000,0.000,0.000,0.000,0.000
11.045,0.000,0.000,0.000,3.856,-5.597,0.229,31.470,-39.637,6.771,-0.195,-0.081,0.033,-0.307,0.181,1.219,-0.060,0.054,1.254,0.000,0.000,0.000,0.000,0.000,0.000
11.073,0.000,0.000,0.000,3.854,-5.598,0.215,31.551,-39.755,6.775,-0.097,-0.029,-0.004,-0.309,0.180,1.221,-0.060,0.053,1.262,0.000,0.000,0.000,0.000,0.000,0.000
11.102,0.000,0.000,0.000,3.850,-5.598,0.196,31.701,-39.973,6.783,0.065,-0.043,-0.007,-0.310,0.180,1.223,-0.065,0.053,1.251,0.000,0.000,0.000,0.000,0.000,0.000
11.132,0.000,0.000,0.000,3.847,-5.596,0.189,31.778,-40.085,6.787,0.202,0.024,-0.013,-0.312,0.178,1.225,-0.070,0.052,1.261,0.000,0.000,0.000,0.000,0.000,0.000
11.163,0.000,0.000,0.000,3.842,-5.590,0.182,31.932,-40.309,6.795,0.199,0.006,0.017,-0.312,0.178,1.227,-0.084,0.056,1.249,0.000,0.000,0.000,0.000,0.000,0.000
11.191,0.000,0.000,0.000,3.840,-5.585,0.183,32.009,-40.421,6.798,0.303,-0.199,0.004,-0.311,0.176,1.229,-0.090,0.049,1.253,0.000,0.000,0.000,0.000,0.000,0.000
11.220,0.000,0.000,0.000,3.841,-5.576,0.190,32.162,-40.644,6.806,0.391,-0.122,-0.060,-0.309,0.175,1.230,-0.109,0.042,1.238,0.000,0.000,0.000,0.000,0.000,0.000
11.250,0.000,0.000,0.000,3.842,-5.570,0.193,32.239,-40.755,6.810,0.326,-0.258,-0.211,-0.305,0.173,1.231,-0.119,0.042,1.220,0.000,0.000,0.000,0.000,0.000,0.000
11.279,0.000,0.000,0.000,3.852,-5.563,0.198,32.393,-40.978,6.817,-0.331,-0.701,-0.502,-0.302,0.171,1.230,-0.112,0.009,1.242,0.000,0.000,0.000,0.000,0.000,0.000
11.309,0.000,0.000,0.000,3.857,-5.567,0.210,32.470,-41.089,6.822,-1.461,-0.055,-1.054,-0.303,0.164,1.225,-0.070,0.001,1.256,0.000,0.000,0.000,0.000,0.000,0.000
11.338,0.000,0.000,0.000,3.857,-5.585,0.245,32.624,-41.312,6.831,-0.834,0.509,-0.684,-0.307,0.161,1.219,-0.019,0.017,1.262,0.000,0.000,0.000,0.000,0.000,0.000
11.367,0.000,0.000,0.000,3.855,-5.595,0.260,32.702,-41.424,6.836,0.162,0.098,0.050,-0.316,0.158,1.209,-0.020,0.029,1.227,0.000,0.000,0.000,0.000,0.000,0.000
11.395,0.000,0.000,0.000,3.855,-5.614,0.282,32.856,-41.648,6.847,0.010,-0.121,0.055,-0.320,0.157,1.205,-0.023,0.023,1.214,0.000,0.000,0.000,0.000,0.000,0.000
11.422,0.000,0.000,0.000,3.856,-5.622,0.287,32.933,-41.761,6.852,-0.044,-0.018,-0.060,-0.323,0.156,1.201,-0.027,0.023,1.215,0.000,0.000,0.000,0.000,0.000,0.000
11.452,0.000,0.000,0.000,3.858,-5.627,0.287,33.010,-41.873,6.858,0.313,0.390,-0.084,-0.328,0.156,1.193,-0.032,0.028,1.265,0.000,0.000,0.000,0.000,0.000,0.000
11.481,0.000,0.000,0.000,3.860,-5.633,0.271,33.164,-42.098,6.869,0.335,0.346,-0.112,-0.329,0.157,1.190,-0.058,0.045,1.235,0.000,0.000,0.000,0.000,0.000,0.000
11.512,0.000,0.000,0.000,3.861,-5.634,0.256,33.242,-42.211,6.874,0.045,-0.191,-0.315,-0.330,0.159,1.183,-0.067,0.049,1.245,0.000,0.000,0.000,0.000,0.000,0.000
11.540,0.000,0.000,0.000,3.863,-5.634,0.221,33.396,-42.436,6.884,0.081,-0.171,-0.281,-0.330,0.160,1.179,-0.073,0.044,1.241,0.000,0.000,0.000,0.000,0.000,0.000
11.575,0.000,0.000,0.000,3.864,-5.634,0.204,33.473,-42.549,6.888,-0.051,0.007,-0.204,-0.330,0.160,1.171,-0.075,0.044,1.222,0.000,0.000,0.000,0.000,0.000,0.000
11.609,0.000,0.000,0.000,3.865,-5.634,0.173,33.628,-42.775,6.896,-0.092,0.029,-0.133,-0.330,0.161,1.163,-0.073,0.047,1.228,0.000,0.000,0.000,0.000,0.000,0.000
11.642,0.000,0.000,0.000,3.862,-5.635,0.155,33.782,-43.000,6.902,0.043,0.109,-0.006,-0.330,0.161,1.159,-0.073,0.054,1.220,0.000,0.000,0.000,0.000,0.000,0.000
11.676,0.000,0.000,0.000,3.856,-5.634,0.146,33.937,-43.225,6.908,0.291,0.385,0.282,-0.330,0.163,1.154,-0.087,0.069,1.216,0.000,0.000,0.000,0.000,0.000,0.000
11.707,0.000,0.000,0.000,3.852,-5.632,0.144,34.014,-43.338,6.911,0.384,0.356,0.384,-0.328,0.167,1.152,-0.097,0.077,1.223,0.000,0.000,0.000,0.000,0.000,0.000
11.736,0.000,0.000,0.000,3.847,-5.628,0.145,34.168,-43.563,6.917,0.463,0.287,0.386,-0.325,0.170,1.152,-0.114,0.089,1.226,0.000,0.000,0.000,0.000,0.000,0.000
11.765,0.000,0.000,0.000,3.844,-5.627,0.147,34.245,-43.676,6.920,0.538,0.301,0.381,-0.322,0.174,1.153,-0.127,0.095,1.274,0.000,0.000,0.000,0.000,0.000,0.000
11.792,0.000,0.000,0.000,3.842,-5.627,0.149,34.322,-43.788,6.923,0.308,0.203,0.348,-0.314,0.181,1.156,-0.133,0.095,1.288,0.000,0.000,0.000,0.000,0.000,0.000
11.821,0.000,0.000,0.000,3.843,-5.633,0.152,34.475,-44.013,6.929,-0.226,-0.075,0.106,-0.310,0.184,1.159,-0.123,0.095,1.317,0.000,0.000,0.000,0.000,0.000,0.000
11.852,0.000,0.000,0.000,3.843,-5.641,0.160,34.552,-44.126,6.932,-0.446,-0.099,-0.049,-0.306,0.190,1.163,-0.113,0.093,1.336,0.000,0.000,0.000,0.000,0.000,0.000
11.882,0.000,0.000,0.000,3.843,-5.665,0.183,34.706,-44.352,6.939,-0.142,-0.172,0.104,-0.305,0.191,1.165,-0.091,0.085,1.356,0.000,0.000,0.000,0.000,0.000,0.000
11.911,0.000,0.000,0.000,3.845,-5.681,0.195,34.787,-44.471,6.943,-0.105,-0.337,0.078,-0.304,0.193,1.168,-0.078,0.073,1.378,0.000,0.000,0.000,0.000,0.000,0.000
11.940,0.000,0.000,0.000,3.850,-5.713,0.215,34.937,-44.694,6.951,-0.145,-0.140,0.076,-0.304,0.193,1.170,-0.070,0.062,1.386,0.000,0.000,0.000,0.000,0.000,0.000
11.969,0.000,0.000,0.000,3.853,-5.729,0.219,35.014,-44.808,6.955,0.088,0.221,0.195,-0.304,0.193,1.174,-0.072,0.064,1.402,0.000,0.000,0.000,0.000,0.000,0.000
11.998,0.000,0.000,0.000,3.860,-5.758,0.209,35.168,-45.038,6.964,0.122,0.225,0.198,-0.304,0.193,1.176,-0.082,0.072,1.397,0.000,0.000,0.000,0.000,0.000,0.000
12.027,0.000,0.000,0.000,3.863,-5.770,0.195,35.245,-45.153,6.968,-0.011,-0.095,0.100,-0.303,0.195,1.181,-0.087,0.075,1.410,0.000,0.000,0.000,0.000,0.000,0.000
12.056,0.000,0.000,0.000,3.870,-5.790,0.157,35.400,-45.384,6.975,-0.032,-0.290,0.053,-0.303,0.195,1.183,-0.092,0.067,1.409,0.000,0.000,0.000,0.000,0.000,0.000
12.086,0.000,0.000,0.000,3.874,-5.799,0.136,35.477,-45.500,6.978,-0.073,-0.491,-0.068,-0.303,0.194,1.187,-0.093,0.058,1.400,0.000,0.000,0.000,0.000,0.000,0.000
12.115,0.000,0.000,0.000,3.879,-5.814,0.097,35.632,-45.732,6.982,-0.165,-0.432,-0.158,-0.303,0.191,1.188,-0.091,0.050,1.412,0.000,0.000,0.000,0.000,0.000,0.000
12.143,0.000,0.000,0.000,3.879,-5.821,0.081,35.710,-45.849,6.984,-0.115,-0.131,-0.138,-0.303,0.189,1.189,-0.087,0.047,1.416,0.000,0.000,0.000,0.000,0.000,0.000
12.173,0.000,0.000,0.000,3.876,-5.828,0.067,35.791,-45.971,6.986,0.125,0.073,0.078,-0.304,0.185,1.191,-0.090,0.048,1.407,0.000,0.000,0.000,0.000,0.000,0.000
12.202,0.000,0.000,0.000,3.864,-5.836,0.043,35.942,-46.199,6.988,0.184,0.090,0.148,-0.304,0.183,1.192,-0.104,0.060,1.391,0.000,0.000,0.000,0.000,0.000,0.000
12.231,0.000,0.000,0.000,3.856,-5.837,0.031,36.019,-46.315,6.989,0.161,0.053,0.235,-0.303,0.180,1.194,-0.116,0.067,1.391,0.000,0.000,0.000,0.000,0.000,0.000
12.260,0.000,0.000,0.000,3.838,-5.834,0.009,36.173,-46.549,6.989,0.133,0.027,0.220,-0.302,0.180,1.196,-0.130,0.069,1.394,0.000,0.000,0.000,0.000,0.000,0.000
12.290,0.000,0.000,0.000,3.831,-5.831,-0.001,36.250,-46.665,6.989,-0.088,-0.016,0.109,-0.300,0.178,1.200,-0.133,0.069,1.431,0.000,0.000,0.000,0.000,0.000,0.000
12.319,0.000,0.000,0.000,3.817,-5.828,-0.016,36.403,-46.899,6.989,-0.155,-0.023,0.028,-0.300,0.177,1.202,-0.128,0.067,1.454,0.000,0.000,0.000,0.000,0.000,0.000
12.348,0.000,0.000,0.000,3.807,-5.830,-0.019,36.479,-47.015,6.989,0.110,-0.020,0.089,-0.300,0.176,1.205,-0.116,0.079,1.443,0.000,0.000,0.000,0.000,0.000,0.000
12.376,0.000,0.000,0.000,3.786,-5.839,-0.023,36.631,-47.248,6.988,0.475,-0.136,0.589,-0.299,0.175,1.207,-0.124,0.050,1.451,0.000,0.000,0.000,0.000,0.000,0.000
12.405,0.000,0.000,0.000,3.786,-5.846,-0.028,36.707,-47.365,6.987,0.387,-0.473,0.661,-0.297,0.174,1.210,-0.134,0.039,1.437,0.000,0.000,0.000,0.000,0.000,0.000
12.433,0.000,0.000,0.000,3.791,-5.854,-0.032,36.786,-47.488,6.987,-1.475,-0.409,-0.751,-0.296,0.169,1.216,-0.107,0.014,1.471,0.000,0.000,0.000,0.000,0.000,0.000
12.462,0.000,0.000,0.000,3.801,-5.878,-0.020,36.934,-47.717,6.986,-1.409,0.182,-0.710,-0.300,0.165,1.216,-0.042,0.011,1.496,0.000,0.000,0.000,0.000,0.000,0.000
12.493,0.000,0.000,0.000,3.806,-5.892,-0.005,37.010,-47.835,6.985,0.176,0.220,0.188,-0.310,0.161,1.216,-0.034,0.021,1.468,0.000,0.000,0.000,0.000,0.000,0.000
12.523,0.000,0.000,0.000,3.826,-5.914,0.018,37.163,-48.071,6.986,0.288,-0.110,-0.015,-0.315,0.160,1.216,-0.048,0.009,1.436,0.000,0.000,0.000,0.000,0.000,0.000
12.552,0.000,0.000,0.000,3.837,-5.923,0.024,37.240,-48.189,6.986,-0.220,0.188,-0.421,-0.321,0.157,1.215,-0.047,0.007,1.424,0.000,0.000,0.000,0.000,0.000,0.000
12.582,0.000,0.000,0.000,3.857,-5.940,0.035,37.394,-48.426,6.987,-0.177,0.204,-0.432,-0.325,0.157,1.213,-0.037,0.016,1.447,0.000,0.000,0.000,0.000,0.000,0.000
12.612,0.000,0.000,0.000,3.865,-5.949,0.039,37.471,-48.545,6.988,0.329,-0.254,-0.387,-0.331,0.156,1.208,-0.040,0.016,1.423,0.000,0.000,0.000,0.000,0.000,0.000
12.642,0.000,0.000,0.000,3.878,-5.965,0.038,37.626,-48.784,6.990,0.351,-0.296,-0.376,-0.332,0.155,1.204,-0.052,0.008,1.403,0.000,0.000,0.000,0.000,0.000,0.000
12.670,0.000,0.000,0.000,3.882,-5.974,0.032,37.703,-48.903,6.990,0.108,0.044,-0.271,-0.333,0.153,1.197,-0.053,0.011,1.355,0.000,0.000,0.000,0.000,0.000,0.000
12.698,0.000,0.000,0.000,3.883,-5.990,0.014,37.862,-49.148,6.991,0.097,0.077,-0.199,-0.333,0.152,1.192,-0.058,0.020,1.352,0.183,0.465,0.108,0.488,0.500,-0.007
12.731,0.000,0.000,0.000,3.882,-5.996,0.002,37.936,-49.262,6.991,0.197,-0.086,-0.001,-0.333,0.150,1.185,-0.062,0.020,1.359,0.183,0.465,0.108,0.488,0.500,-0.007
12.762,0.000,0.000,0.000,3.876,-6.007,-0.030,38.091,-49.502,6.991,0.099,-0.005,0.064,-0.332,0.149,1.181,-0.073,0.024,1.355,0.183,0.465,0.108,0.488,0.500,-0.007
12.792,0.000,0.000,0.000,3.872,-6.009,-0.049,38.169,-49.622,6.990,-0.057,0.173,0.183,-0.331,0.148,1.176,-0.085,0.031,1.346,0.183,0.465,0.108,0.488,0.500,-0.007
12.820,0.000,0.000,0.000,3.861,-6.007,-0.085,38.324,-49.863,6.987,-0.162,0.203,0.217,-0.330,0.148,1.175,-0.090,0.042,1.341,0.183,0.465,0.108,0.488,0.500,-0.007
12.845,0.000,0.000,0.000,3.854,-6.003,-0.100,38.405,-49.989,6.986,-0.073,0.156,0.285,-0.330,0.149,1.173,-0.086,0.045,1.340,0.183,0.465,0.108,0.488,0.500,-0.007
12.870,0.000,0.000,0.000,3.848,-5.998,-0.109,38.478,-50.103,6.984,0.083,0.203,0.378,-0.331,0.150,1.174,-0.089,0.050,1.348,0.183,0.465,0.108,0.488,0.500,-0.007
12.896,0.000,0.000,0.000,3.835,-5.985,-0.117,38.631,-50.342,6.979,0.236,0.307,0.492,-0.331,0.152,1.175,-0.098,0.056,1.344,0.183,0.465,0.108,0.488,0.500,-0.007
12.922,0.000,0.000,0.000,3.830,-5.979,-0.117,38.708,-50.462,6.977,0.292,0.448,0.520,-0.330,0.154,1.177,-0.104,0.064,1.355,0.183,0.465,0.108,0.488,0.500,-0.007
12.948,0.000,0.000,0.000,3.826,-5.974,-0.116,38.785,-50.582,6.974,0.116,0.767,0.314,-0.327,0.160,1.183,-0.106,0.077,1.400,0.183,0.465,0.108,0.488,0.500,-0.007
12.973,0.000,0.000,0.000,3.823,-5.971,-0.114,38.865,-50.707,6.972,-0.050,0.575,0.260,-0.326,0.165,1.187,-0.109,0.091,1.419,0.183,0.465,0.108,0.488,0.500,-0.007
13.000,0.000,0.000,0.000,3.818,-5.974,-0.105,39.014,-50.940,6.968,-0.288,-0.031,0.117,-0.325,0.171,1.190,-0.090,0.097,1.445,0.183,0.465,0.108,0.488,0.500,-0.007
13.030,0.000,0.000,0.000,3.817,-5.983,-0.094,39.090,-51.059,6.966,-0.292,-0.272,0.054,-0.326,0.178,1.197,-0.061,0.089,1.469,0.183,0.465,0.108,0.488,0.500,-0.007
13.057,0.000,0.000,0.000,3.814,-6.011,-0.068,39.243,-51.299,6.962,-0.023,-0.011,0.305,-0.327,0.180,1.200,-0.044,0.078,1.477,0.183,0.465,0.108,0.488,0.500,-0.007
13.084,0.000,0.000,0.000,3.814,-6.026,-0.060,39.319,-51.420,6.961,-0.001,-0.034,0.402,-0.328,0.182,1.203,-0.046,0.077,1.462,0.183,0.465,0.108,0.488,0.500,-0.007
13.112,0.000,0.000,0.000,3.816,-6.042,-0.054,39.395,-51.540,6.960,-0.459,-0.209,0.211,-0.330,0.186,1.211,-0.032,0.072,1.468,0.183,0.465,0.108,0.488,0.500,-0.007
13.137,0.000,0.000,0.000,3.819,-6.073,-0.046,39.548,-51.783,6.958,-0.327,-0.169,0.249,-0.332,0.186,1.215,-0.018,0.063,1.468,0.183,0.465,0.108,0.488,0.500,-0.007
13.163,0.000,0.000,0.000,3.821,-6.086,-0.046,39.624,-51.904,6.957,-0.078,-0.160,0.298,-0.335,0.187,1.219,-0.016,0.059,1.464,0.183,0.465,0.108,0.488,0.500,-0.007
13.190,0.000,0.000,0.000,3.823,-6.097,-0.050,39.701,-52.026,6.956,0.033,-0.115,0.219,-0.340,0.186,1.228,-0.023,0.056,1.463,0.353,0.936,0.161,0.985,1.000,0.000
13.217,0.000,0.000,0.000,3.827,-6.112,-0.067,39.854,-52.270,6.954,-0.022,-0.034,0.160,-0.341,0.186,1.232,-0.030,0.054,1.467,0.353,0.936,0.161,0.985,1.000,0.000
13.245,0.000,0.000,0.000,3.828,-6.117,-0.079,39.930,-52.393,6.952,-0.021,-0.020,0.126,-0.343,0.185,1.237,-0.030,0.054,1.488,0.353,0.936,0.161,0.985,1.000,0.000
13.270,0.000,0.000,0.000,3.829,-6.121,-0.092,40.007,-52.515,6.951,0.066,-0.183,0.007,-0.345,0.184,1.244,-0.036,0.054,1.492,0.353,0.936,0.161,0.985,1.000,0.000
13.298,0.000,0.000,0.000,3.828,-6.124,-0.117,40.160,-52.760,6.946,0.028,-0.134,-0.034,-0.346,0.183,1.247,-0.042,0.052,1.497,0.353,0.936,0.161,0.985,1.000,0.000
13.323,0.000,0.000,0.000,3.825,-6.124,-0.128,40.237,-52.882,6.944,0.029,-0.005,-0.017,-0.347,0.182,1.250,-0.042,0.052,1.491,0.353,0.936,0.161,0.985,1.000,0.000
13.349,0.000,0.000,0.000,3.820,-6.123,-0.137,40.313,-53.005,6.941,0.303,0.121,0.241,-0.348,0.181,1.255,-0.052,0.060,1.482,0.353,0.936,0.161,0.985,1.000,0.000
13.376,0.000,0.000,0.000,3.809,-6.115,-0.152,40.466,-53.250,6.936,0.412,-0.027,0.263,-0.348,0.180,1.258,-0.076,0.063,1.464,0.353,0.936,0.161,0.985,1.000,0.000
13.404,0.000,0.000,0.000,3.804,-6.108,-0.158,40.542,-53.372,6.932,0.443,-0.119,0.219,-0.346,0.180,1.261,-0.084,0.060,1.468,0.353,0.936,0.161,0.985,1.000,0.000
13.434,0.000,0.000,0.000,3.799,-6.101,-0.163,40.618,-53.494,6.929,0.263,-0.134,0.088,-0.342,0.178,1.268,-0.097,0.057,1.473,0.353,0.936,0.161,0.985,1.000,0.000
13.464,0.000,0.000,0.000,3.791,-6.085,-0.166,40.770,-53.738,6.923,0.187,-0.104,0.066,-0.339,0.177,1.271,-0.106,0.050,1.471,0.353,0.936,0.161,0.985,1.000,0.000
13.492,0.000,0.000,0.000,3.789,-6.078,-0.165,40.846,-53.859,6.919,0.200,-0.053,-0.009,-0.333,0.175,1.276,-0.109,0.048,1.476,0.353,0.936,0.161,0.985,1.000,0.000
13.520,0.000,0.000,0.000,3.785,-6.067,-0.161,40.997,-54.102,6.913,0.247,-0.143,-0.033,-0.330,0.174,1.278,-0.116,0.044,1.482,0.353,0.936,0.161,0.985,1.000,0.000
13.547,0.000,0.000,0.000,3.787,-6.065,-0.160,41.073,-54.223,6.910,-0.778,-0.768,-0.542,-0.326,0.170,1.281,-0.103,0.026,1.501,0.353,0.936,0.161,0.985,1.000,0.000
13.572,0.000,0.000,0.000,3.790,-6.067,-0.154,41.149,-54.345,6.906,-1.213,-0.376,-0.681,-0.326,0.166,1.280,-0.088,0.012,1.495,0.353,0.936,0.161,0.985,1.000,0.000
13.599,0.000,0.000,0.000,3.792,-6.085,-0.122,41.300,-54.588,6.901,-0.678,0.319,-0.358,-0.328,0.162,1.279,-0.033,0.016,1.520,0.353,0.936,0.161,0.985,1.000,0.000
13.624,0.000,0.000,0.000,3.790,-6.098,-0.105,41.376,-54.710,6.899,0.255,0.594,0.115,-0.330,0.160,1.277,-0.031,0.026,1.496,0.353,0.936,0.161,0.985,1.000,0.000
13.649,0.000,0.000,0.000,3.791,-6.110,-0.094,41.452,-54.832,6.897,0.503,-0.197,0.183,-0.332,0.158,1.276,-0.045,0.031,1.465,0.353,0.936,0.161,0.985,1.000,0.000
13.674,0.000,0.000,0.000,3.794,-6.122,-0.089,41.531,-54.960,6.895,0.083,-0.349,-0.066,-0.331,0.157,1.276,-0.052,0.015,1.467,0.353,0.936,0.161,0.985,1.000,0.000
13.699,0.000,0.000,0.000,3.805,-6.144,-0.088,41.680,-55.199,6.891,-0.194,-0.155,-0.272,-0.331,0.155,1.275,-0.043,0.001,1.488,0.353,0.936,0.161,0.985,1.000,0.000
13.727,0.000,0.000,0.000,3.811,-6.156,-0.090,41.756,-55.322,6.889,-0.192,0.271,-0.396,-0.331,0.153,1.272,-0.038,0.003,1.497,0.353,0.936,0.161,0.985,1.000,0.000
13.756,0.000,0.000,0.000,3.820,-6.180,-0.100,41.908,-55.569,6.886,-0.079,0.305,-0.353,-0.332,0.152,1.270,-0.029,0.018,1.489,0.353,0.936,0.161,0.985,1.000,0.000
13.785,0.000,0.000,0.000,3.823,-6.190,-0.110,41.989,-55.699,6.884,0.068,0.181,-0.202,-0.333,0.153,1.264,-0.031,0.025,1.460,0.353,0.936,0.161,0.985,1.000,0.000
13.815,0.000,0.000,0.000,3.828,-6.207,-0.137,42.138,-55.941,6.879,-0.010,0.094,-0.193,-0.333,0.154,1.261,-0.035,0.029,1.453,0.353,0.936,0.161,0.985,1.000,0.000
13.845,0.000,0.000,0.000,3.831,-6.213,-0.153,42.214,-56.065,6.876,-0.125,0.100,-0.220,-0.334,0.155,1.258,-0.032,0.032,1.452,0.353,0.936,0.161,0.985,1.000,0.000
13.870,0.000,0.000,0.000,3.833,-6.219,-0.170,42.291,-56.189,6.873,-0.131,0.131,-0.203,-0.335,0.157,1.252,-0.032,0.035,1.443,0.353,0.936,0.161,0.985,1.000,0.000
13.895,0.000,0.000,0.000,3.838,-6.225,-0.204,42.445,-56.438,6.865,-0.127,0.053,-0.169,-0.336,0.159,1.248,-0.030,0.038,1.448,0.353,0.936,0.161,0.985,1.000,0.000
13.921,0.000,0.000,0.000,3.840,-6.227,-0.220,42.521,-56.563,6.861,-0.137,0.044,-0.112,-0.337,0.160,1.245,-0.030,0.040,1.446,0.353,0.936,0.161,0.985,1.000,0.000
13.947,0.000,0.000,0.000,3.842,-6.226,-0.235,42.598,-56.687,6.856,-0.009,0.045,0.048,-0.340,0.163,1.239,-0.037,0.042,1.416,0.353,0.936,0.161,0.985,1.000,0.000
13.973,0.000,0.000,0.000,3.843,-6.223,-0.249,42.675,-56.812,6.851,0.101,0.015,0.161,-0.341,0.164,1.236,-0.037,0.043,1.431,0.353,0.936,0.161,0.985,1.000,0.000
14.005,0.000,0.000,0.000,3.844,-6.211,-0.271,42.829,-57.060,6.841,0.119,0.048,0.222,-0.342,0.165,1.234,-0.052,0.045,1.390,0.353,0.936,0.161,0.985,1.000,0.000
14.033,0.000,0.000,0.000,3.844,-6.201,-0.279,42.909,-57.191,6.835,0.178,-0.034,0.354,-0.343,0.167,1.233,-0.065,0.045,1.385,0.353,0.936,0.161,0.985,1.000,0.000
14.063,0.000,0.000,0.000,3.846,-6.178,-0.282,43.059,-57.432,6.824,0.226,-0.029,0.357,-0.342,0.168,1.233,-0.078,0.040,1.385,0.353,0.936,0.161,0.985,1.000,0.000
14.092,0.000,0.000,0.000,3.847,-6.165,-0.278,43.136,-57.556,6.819,0.280,0.319,0.279,-0.340,0.170,1.236,-0.082,0.041,1.385,0.353,0.936,0.161,0.985,1.000,0.000
14.122,0.000,0.000,0.000,3.849,-6.142,-0.262,43.290,-57.802,6.808,0.283,0.506,0.290,-0.339,0.172,1.238,-0.093,0.058,1.386,0.353,0.936,0.161,0.985,1.000,0.000
14.152,0.000,0.000,0.000,3.848,-6.131,-0.254,43.371,-57.931,6.802,0.142,0.812,0.335,-0.335,0.178,1.243,-0.099,0.077,1.419,0.353,0.936,0.161,0.985,1.000,0.000
14.182,0.000,0.000,0.000,3.843,-6.113,-0.243,43.521,-58.169,6.793,-0.028,0.667,0.373,-0.332,0.184,1.246,-0.098,0.105,1.430,0.353,0.936,0.161,0.985,1.000,0.000
14.211,0.000,0.000,0.000,3.840,-6.107,-0.236,43.602,-58.298,6.788,-0.132,0.044,0.238,-0.329,0.195,1.253,-0.095,0.110,1.462,0.353,0.936,0.161,0.985,1.000,0.000
14.240,0.000,0.000,0.000,3.836,-6.103,-0.223,43.751,-58.536,6.779,0.049,-0.045,0.266,-0.328,0.199,1.257,-0.086,0.109,1.480,0.353,0.936,0.161,0.985,1.000,0.000
14.271,0.000,0.000,0.000,3.836,-6.104,-0.217,43.832,-58.664,6.774,0.094,-0.420,0.155,-0.326,0.207,1.265,-0.082,0.096,1.497,0.353,0.936,0.161,0.985,1.000,0.000
14.299,0.000,0.000,0.000,3.841,-6.111,-0.210,43.982,-58.902,6.766,-0.158,-0.448,-0.090,-0.325,0.209,1.269,-0.069,0.074,1.521,0.353,0.936,0.161,0.985,1.000,0.000
14.328,0.000,0.000,0.000,3.845,-6.119,-0.206,44.059,-59.024,6.762,-0.324,-0.272,-0.287,-0.324,0.210,1.274,-0.063,0.067,1.530,0.353,0.936,0.161,0.985,1.000,0.000
14.358,0.000,0.000,0.000,3.851,-6.138,-0.198,44.212,-59.269,6.754,-0.160,-0.173,-0.205,-0.325,0.209,1.276,-0.043,0.060,1.530,0.353,0.936,0.161,0.985,1.000,0.000
14.389,0.000,0.000,0.000,3.853,-6.149,-0.199,44.289,-59.392,6.750,0.095,-0.016,-0.044,-0.326,0.208,1.278,-0.042,0.061,1.510,0.353,0.936,0.161,0.985,1.000,0.000
14.418,0.000,0.000,0.000,3.855,-6.166,-0.212,44.444,-59.639,6.741,0.075,0.044,-0.031,-0.327,0.208,1.278,-0.051,0.066,1.484,0.353,0.936,0.161,0.985,1.000,0.000
14.447,0.000,0.000,0.000,3.855,-6.172,-0.226,44.521,-59.762,6.737,-0.015,-0.035,-0.053,-0.327,0.207,1.279,-0.052,0.067,1.482,0.353,0.936,0.161,0.985,1.000,0.000
14.476,0.000,0.000,0.000,3.854,-6.180,-0.263,44.675,-60.009,6.727,-0.042,-0.142,-0.095,-0.327,0.207,1.279,-0.058,0.066,1.475,0.353,0.936,0.161,0.985,1.000,0.000
14.507,0.000,0.000,0.000,3.852,-6.181,-0.284,44.752,-60.133,6.722,-0.184,-0.182,-0.189,-0.328,0.205,1.279,-0.063,0.067,1.464,0.353,0.936,0.161,0.985,1.000,0.000
14.535,0.000,0.000,0.000,3.849,-6.181,-0.307,44.837,-60.269,6.715,-0.239,-0.137,-0.189,-0.329,0.204,1.278,-0.059,0.063,1.453,0.353,0.936,0.161,0.985,1.000,0.000
14.563,0.000,0.000,0.000,3.842,-6.178,-0.343,44.983,-60.503,6.703,-0.213,-0.116,-0.154,-0.330,0.202,1.277,-0.056,0.063,1.463,0.353,0.936,0.161,0.985,1.000,0.000
14.593,0.000,0.000,0.000,3.836,-6.175,-0.357,45.060,-60.627,6.696,-0.033,-0.065,-0.006,-0.334,0.199,1.275,-0.057,0.065,1.446,0.353,0.936,0.161,0.985,1.000,0.000
14.623,0.000,0.000,0.000,3.823,-6.165,-0.378,45.213,-60.874,6.681,0.082,-0.070,0.031,-0.335,0.198,1.274,-0.063,0.066,1.449,0.353,0.936,0.161,0.985,1.000,0.000
14.651,0.000,0.000,0.000,3.815,-6.158,-0.384,45.289,-60.997,6.674,0.227,-0.088,0.098,-0.337,0.195,1.272,-0.066,0.064,1.444,0.353,0.936,0.161,0.985,1.000,0.000
14.680,0.000,0.000,0.000,3.799,-6.142,-0.391,45.441,-61.243,6.658,0.287,-0.016,0.145,-0.337,0.193,1.272,-0.083,0.065,1.430,0.353,0.936,0.161,0.985,1.000,0.000
14.711,0.000,0.000,0.000,3.790,-6.131,-0.394,45.521,-61.372,6.650,0.206,-0.100,0.222,-0.335,0.190,1.272,-0.100,0.067,1.413,0.500,1.414,0.231,1.480,1.499,0.031
14.741,0.000,0.000,0.000,3.777,-6.107,-0.400,45.669,-61.611,6.634,0.139,-0.209,0.182,-0.334,0.189,1.273,-0.116,0.058,1.409,0.500,1.414,0.231,1.480,1.499,0.031
14.770,0.000,0.000,0.000,3.772,-6.092,-0.403,45.744,-61.733,6.626,0.252,-0.159,-0.051,-0.331,0.185,1.275,-0.118,0.053,1.419,0.500,1.414,0.231,1.480,1.499,0.031
14.799,0.000,0.000,0.000,3.765,-6.065,-0.410,45.895,-61.976,6.610,0.158,-0.246,-0.159,-0.329,0.183,1.276,-0.130,0.043,1.409,0.500,1.414,0.231,1.480,1.499,0.031
14.828,0.000,0.000,0.000,3.767,-6.056,-0.414,45.970,-62.097,6.602,-1.096,-0.288,-0.762,-0.327,0.178,1.275,-0.106,0.027,1.445,0.500,1.414,0.231,1.480,1.499,0.031
14.860,0.000,0.000,0.000,3.771,-6.057,-0.402,46.121,-62.339,6.586,-1.218,0.205,-0.982,-0.329,0.175,1.272,-0.038,0.033,1.496,0.500,1.414,0.231,1.480,1.499,0.031
14.888,0.000,0.000,0.000,3.769,-6.068,-0.388,46.196,-62.460,6.578,0.153,0.628,-0.059,-0.337,0.172,1.263,-0.027,0.044,1.456,0.500,1.414,0.231,1.480,1.499,0.031
14.917,0.000,0.000,0.000,3.767,-6.098,-0.365,46.347,-62.704,6.563,0.491,0.308,0.189,-0.341,0.173,1.259,-0.024,0.062,1.440,0.500,1.414,0.231,1.480,1.499,0.031
14.945,0.000,0.000,0.000,3.768,-6.115,-0.359,46.422,-62.826,6.555,-0.004,-0.140,0.073,-0.344,0.174,1.253,-0.023,0.054,1.437,0.500,1.414,0.231,1.480,1.499,0.031
14.973,0.000,0.000,0.000,3.771,-6.132,-0.354,46.502,-62.954,6.548,-0.105,-0.050,-0.070,-0.345,0.174,1.251,-0.023,0.052,1.442,0.500,1.414,0.231,1.480,1.499,0.031
15.003,0.000,0.000,0.000,3.777,-6.160,-0.353,46.649,-63.194,6.534,-0.034,0.182,-0.116,-0.347,0.175,1.249,-0.021,0.054,1.444,0.500,1.414,0.231,1.480,1.499,0.031
15.031,0.000,0.000,0.000,3.779,-6.171,-0.359,46.724,-63.317,6.527,0.049,0.452,-0.121,-0.349,0.177,1.244,-0.030,0.064,1.424,0.500,1.414,0.231,1.480,1.499,0.031
15.061,0.000,0.000,0.000,3.783,-6.185,-0.382,46.876,-63.565,6.512,0.000,0.409,-0.160,-0.350,0.179,1.242,-0.040,0.082,1.410,0.500,1.414,0.231,1.480,1.499,0.031
15.090,0.000,0.000,0.000,3.786,-6.189,-0.398,46.951,-63.688,6.504,-0.139,0.123,-0.290,-0.352,0.185,1.237,-0.038,0.087,1.398,0.500,1.414,0.231,1.480,1.499,0.031
15.119,0.000,0.000,0.000,3.790,-6.191,-0.429,47.103,-63.936,6.488,-0.103,0.105,-0.313,-0.353,0.188,1.233,-0.038,0.092,1.378,0.500,1.414,0.231,1.480,1.499,0.031
15.148,0.000,0.000,0.000,3.793,-6.189,-0.445,47.182,-64.066,6.479,-0.049,0.120,-0.258,-0.355,0.193,1.226,-0.043,0.093,1.366,0.500,1.414,0.231,1.480,1.499,0.031
15.178,0.000,0.000,0.000,3.800,-6.183,-0.471,47.330,-64.307,6.461,-0.029,0.083,-0.235,-0.356,0.196,1.223,-0.046,0.095,1.358,0.500,1.414,0.231,1.480,1.499,0.031
15.207,0.000,0.000,0.000,3.803,-6.178,-0.481,47.407,-64.431,6.451,0.217,-0.054,-0.082,-0.358,0.201,1.215,-0.046,0.096,1.369,0.670,1.884,0.337,1.969,1.999,0.037
15.235,0.000,0.000,0.000,3.812,-6.162,-0.497,47.559,-64.678,6.432,0.369,-0.219,-0.018,-0.358,0.203,1.211,-0.067,0.088,1.339,0.670,1.884,0.337,1.969,1.999,0.037
15.264,0.000,0.000,0.000,3.817,-6.150,-0.501,47.635,-64.801,6.422,0.512,-0.409,0.005,-0.357,0.203,1.208,-0.089,0.076,1.322,0.670,1.884,0.337,1.969,1.999,0.037
15.294,0.000,0.000,0.000,3.823,-6.136,-0.504,47.715,-64.930,6.411,0.593,-0.441,-0.184,-0.353,0.203,1.203,-0.100,0.066,1.312,0.670,1.884,0.337,1.969,1.999,0.037
15.321,0.000,0.000,0.000,3.830,-6.108,-0.505,47.865,-65.169,6.391,0.451,-0.299,-0.193,-0.349,0.201,1.200,-0.126,0.057,1.306,0.670,1.884,0.337,1.969,1.999,0.037
15.351,0.000,0.000,0.000,3.830,-6.096,-0.502,47.941,-65.291,6.381,0.195,0.084,0.064,-0.341,0.198,1.194,-0.128,0.058,1.329,0.670,1.884,0.337,1.969,1.999,0.037
15.381,0.000,0.000,0.000,3.827,-6.076,-0.490,48.094,-65.534,6.362,0.200,0.290,0.206,-0.337,0.196,1.192,-0.132,0.071,1.318,0.670,1.884,0.337,1.969,1.999,0.037
15.413,0.000,0.000,0.000,3.823,-6.070,-0.484,48.171,-65.655,6.352,0.106,0.230,0.452,-0.329,0.196,1.190,-0.136,0.078,1.330,0.670,1.884,0.337,1.969,1.999,0.037
15.442,0.000,0.000,0.000,3.816,-6.065,-0.473,48.324,-65.898,6.333,-0.142,-0.022,0.364,-0.325,0.197,1.190,-0.125,0.077,1.347,0.670,1.884,0.337,1.969,1.999,0.037
15.471,0.000,0.000,0.000,3.812,-6.069,-0.467,48.400,-66.019,6.323,-0.244,-0.248,0.172,-0.321,0.197,1.193,-0.103,0.075,1.426,0.670,1.884,0.337,1.969,1.999,0.037
15.500,0.000,0.000,0.000,3.805,-6.086,-0.453,48.552,-66.263,6.305,-0.134,-0.330,0.213,-0.319,0.196,1.194,-0.083,0.062,1.470,0.670,1.884,0.337,1.969,1.999,0.037
15.529,0.000,0.000,0.000,3.802,-6.098,-0.449,48.628,-66.384,6.296,-0.519,-0.145,0.216,-0.318,0.193,1.198,-0.080,0.056,1.478,0.670,1.884,0.337,1.969,1.999,0.037
15.558,0.000,0.000,0.000,3.797,-6.129,-0.443,48.780,-66.629,6.278,-0.722,-0.002,0.176,-0.320,0.191,1.201,-0.044,0.051,1.509,0.670,1.884,0.337,1.969,1.999,0.037
15.587,0.000,0.000,0.000,3.795,-6.146,-0.439,48.856,-66.752,6.269,-0.352,-0.108,0.280,-0.326,0.189,1.206,-0.025,0.050,1.513,0.670,1.884,0.337,1.969,1.999,0.037
15.617,0.000,0.000,0.000,3.791,-6.176,-0.436,49.008,-66.998,6.252,-0.028,-0.172,0.323,-0.329,0.187,1.209,-0.024,0.046,1.521,0.670,1.884,0.337,1.969,1.999,0.037
15.648,0.000,0.000,0.000,3.789,-6.188,-0.440,49.084,-67.122,6.243,-0.043,0.067,0.287,-0.335,0.184,1.216,-0.027,0.044,1.510,0.670,1.884,0.337,1.969,1.999,0.037
15.676,0.000,0.000,0.000,3.784,-6.203,-0.460,49.235,-67.370,6.225,-0.126,0.215,0.266,-0.337,0.183,1.220,-0.035,0.054,1.497,0.670,1.884,0.337,1.969,1.999,0.037
15.704,0.000,0.000,0.000,3.781,-6.207,-0.476,49.318,-67.506,6.215,-0.160,0.277,0.249,-0.341,0.182,1.225,-0.045,0.062,1.483,0.842,2.353,0.374,2.468,2.499,0.042
15.735,0.000,0.000,0.000,3.778,-6.207,-0.492,49.386,-67.618,6.206,-0.075,0.065,0.186,-0.345,0.182,1.232,-0.043,0.066,1.508,0.842,2.353,0.374,2.468,2.499,0.042
15.765,0.000,0.000,0.000,3.774,-6.202,-0.530,49.537,-67.866,6.186,-0.048,-0.066,0.103,-0.348,0.183,1.236,-0.054,0.066,1.515,0.842,2.353,0.374,2.468,2.499,0.042
15.793,0.000,0.000,0.000,3.771,-6.197,-0.550,49.617,-67.996,6.174,-0.064,-0.027,-0.037,-0.353,0.183,1.243,-0.059,0.067,1.518,0.842,2.353,0.374,2.468,2.499,0.042
15.823,0.000,0.000,0.000,3.766,-6.186,-0.585,49.764,-68.238,6.152,0.035,-0.001,-0.012,-0.355,0.183,1.246,-0.061,0.066,1.525,0.842,2.353,0.374,2.468,2.499,0.042
15.853,0.000,0.000,0.000,3.764,-6.181,-0.600,49.839,-68.361,6.140,0.214,-0.349,0.031,-0.358,0.182,1.251,-0.065,0.062,1.514,0.842,2.353,0.374,2.468,2.499,0.042
15.883,0.000,0.000,0.000,3.761,-6.173,-0.622,49.989,-68.608,6.116,0.356,-0.468,0.062,-0.358,0.180,1.253,-0.074,0.044,1.510,0.842,2.353,0.374,2.468,2.499,0.042
15.913,0.000,0.000,0.000,3.762,-6.170,-0.629,50.065,-68.732,6.103,0.382,-0.281,0.083,-0.357,0.175,1.257,-0.083,0.030,1.526,0.842,2.353,0.374,2.468,2.499,0.042
15.941,0.000,0.000,0.000,3.765,-6.165,-0.640,50.215,-68.979,6.078,0.198,-0.020,-0.010,-0.355,0.172,1.259,-0.096,0.025,1.529,0.842,2.353,0.374,2.468,2.499,0.042
15.970,0.000,0.000,0.000,3.766,-6.164,-0.646,50.290,-69.102,6.065,-0.329,0.115,-0.121,-0.352,0.168,1.262,-0.098,0.027,1.556,0.842,2.353,0.374,2.468,2.499,0.042
16.001,0.000,0.000,0.000,3.768,-6.168,-0.651,50.445,-69.355,6.038,-1.034,0.368,-0.121,-0.353,0.167,1.263,-0.061,0.037,1.593,0.842,2.353,0.374,2.468,2.499,0.042
16.032,0.000,0.000,0.000,3.768,-6.176,-0.644,50.517,-69.472,6.026,-1.145,1.241,0.363,-0.359,0.168,1.265,-0.018,0.052,1.600,0.842,2.353,0.374,2.468,2.499,0.042
16.062,0.000,0.000,0.000,3.765,-6.198,-0.625,50.667,-69.719,6.001,-0.561,1.765,0.364,-0.366,0.172,1.267,0.016,0.119,1.629,0.842,2.353,0.374,2.468,2.499,0.042
16.094,0.000,0.000,0.000,3.762,-6.211,-0.621,50.754,-69.862,5.986,-0.032,0.762,0.297,-0.378,0.189,1.271,0.015,0.152,1.619,0.842,2.353,0.374,2.468,2.499,0.042
16.122,0.000,0.000,0.000,3.760,-6.231,-0.619,50.893,-70.092,5.963,-0.261,-0.376,0.101,-0.384,0.198,1.274,0.024,0.157,1.649,0.842,2.353,0.374,2.468,2.499,0.042
16.152,0.000,0.000,0.000,3.762,-6.245,-0.613,50.968,-70.217,5.951,0.274,-1.745,-0.314,-0.394,0.208,1.279,0.038,0.122,1.663,0.842,2.353,0.374,2.468,2.499,0.042
16.183,0.000,0.000,0.000,3.770,-6.273,-0.596,51.119,-70.467,5.927,0.946,-1.570,-0.329,-0.397,0.207,1.279,0.008,0.051,1.618,0.842,2.353,0.374,2.468,2.499,0.042
16.214,0.000,0.000,0.000,3.776,-6.284,-0.595,51.198,-70.599,5.914,1.158,-0.580,-0.132,-0.396,0.199,1.280,-0.021,0.031,1.603,0.986,2.832,0.350,2.967,2.998,0.077
16.243,0.000,0.000,0.000,3.795,-6.300,-0.606,51.346,-70.845,5.891,0.418,-0.225,-0.370,-0.393,0.194,1.279,-0.060,0.002,1.582,0.986,2.832,0.350,2.967,2.998,0.077
16.272,0.000,0.000,0.000,3.802,-6.306,-0.609,51.422,-70.971,5.879,0.176,-0.981,-1.114,-0.385,0.183,1.275,-0.061,0.003,1.609,0.986,2.832,0.350,2.967,2.998,0.077
16.302,0.000,0.000,0.000,3.807,-6.315,-0.611,51.574,-71.223,5.854,0.611,-1.205,-0.850,-0.382,0.175,1.269,-0.084,-0.036,1.584,0.986,2.832,0.350,2.967,2.998,0.077
16.331,0.000,0.000,0.000,3.809,-6.317,-0.613,51.650,-71.349,5.842,0.876,-0.428,-0.110,-0.371,0.157,1.257,-0.105,-0.053,1.552,0.986,2.832,0.350,2.967,2.998,0.077
16.361,0.000,0.000,0.000,3.812,-6.316,-0.621,51.802,-71.602,5.817,0.619,-0.039,-0.133,-0.363,0.147,1.252,-0.145,-0.063,1.508,0.986,2.832,0.350,2.967,2.998,0.077
16.391,0.000,0.000,0.000,3.813,-6.313,-0.625,51.879,-71.728,5.805,0.269,0.529,-0.101,-0.349,0.133,1.242,-0.160,-0.056,1.499,0.986,2.832,0.350,2.967,2.998,0.077
16.420,0.000,0.000,0.000,3.815,-6.304,-0.633,52.031,-71.981,5.780,0.210,0.670,0.029,-0.342,0.129,1.237,-0.176,-0.033,1.480,0.986,2.832,0.350,2.967,2.998,0.077
16.447,0.000,0.000,0.000,3.816,-6.298,-0.635,52.107,-72.107,5.767,0.411,0.643,0.155,-0.328,0.125,1.230,-0.181,-0.021,1.504,0.986,2.832,0.350,2.967,2.998,0.077
16.473,0.000,0.000,0.000,3.817,-6.291,-0.638,52.184,-72.233,5.754,0.398,0.613,0.215,-0.321,0.125,1.227,-0.196,-0.007,1.504,0.986,2.832,0.350,2.967,2.998,0.077
16.502,0.000,0.000,0.000,3.817,-6.276,-0.647,52.336,-72.484,5.729,0.320,0.538,0.241,-0.314,0.126,1.225,-0.213,0.017,1.501,0.986,2.832,0.350,2.967,2.998,0.077
16.529,0.000,0.000,0.000,3.816,-6.270,-0.653,52.413,-72.609,5.716,0.203,0.241,0.254,-0.301,0.131,1.223,-0.218,0.024,1.503,0.986,2.832,0.350,2.967,2.998,0.077
16.555,0.000,0.000,0.000,3.814,-6.265,-0.660,52.489,-72.735,5.703,0.027,0.017,0.315,-0.294,0.134,1.223,-0.218,0.031,1.499,0.986,2.832,0.350,2.967,2.998,0.077
16.580,0.000,0.000,0.000,3.812,-6.264,-0.676,52.642,-72.985,5.676,-0.407,-0.297,0.275,-0.289,0.136,1.223,-0.195,0.019,1.543,0.986,2.832,0.350,2.967,2.998,0.077
16.605,0.000,0.000,0.000,3.812,-6.269,-0.678,52.718,-73.111,5.662,-0.828,-0.445,0.111,-0.286,0.137,1.224,-0.179,0.009,1.578,0.986,2.832,0.350,2.967,2.998,0.077
16.634,0.000,0.000,0.000,3.812,-6.279,-0.674,52.794,-73.236,5.649,-0.406,-0.119,0.169,-0.284,0.137,1.226,-0.145,0.004,1.618,0.986,2.832,0.350,2.967,2.998,0.077
16.663,0.000,0.000,0.000,3.813,-6.306,-0.660,52.947,-73.488,5.622,-0.217,-0.127,0.268,-0.284,0.136,1.228,-0.122,-0.008,1.639,0.986,2.832,0.350,2.967,2.998,0.077
16.693,0.000,0.000,0.000,3.815,-6.323,-0.654,53.023,-73.614,5.609,-0.630,-0.046,0.007,-0.288,0.135,1.231,-0.116,-0.012,1.604,1.153,3.303,0.323,3.467,3.498,0.086
16.725,0.000,0.000,0.000,3.821,-6.358,-0.642,53.176,-73.868,5.583,-0.693,0.250,-0.060,-0.290,0.134,1.233,-0.082,-0.008,1.643,1.153,3.303,0.323,3.467,3.498,0.086
16.755,0.000,0.000,0.000,3.823,-6.391,-0.639,53.328,-74.123,5.557,-0.440,0.508,0.007,-0.298,0.135,1.235,-0.067,0.003,1.655,1.153,3.303,0.323,3.467,3.498,0.086
16.784,0.000,0.000,0.000,3.823,-6.406,-0.642,53.405,-74.251,5.545,-0.345,0.313,-0.057,-0.304,0.137,1.236,-0.055,0.023,1.661,1.153,3.303,0.323,3.467,3.498,0.086
16.812,0.000,0.000,0.000,3.823,-6.419,-0.648,53.481,-74.379,5.532,-0.226,-0.049,-0.171,-0.314,0.141,1.237,-0.051,0.024,1.651,1.153,3.303,0.323,3.467,3.498,0.086
16.842,0.000,0.000,0.000,3.819,-6.441,-0.666,53.634,-74.636,5.506,-0.110,-0.056,-0.120,-0.319,0.142,1.237,-0.049,0.025,1.654,1.153,3.303,0.323,3.467,3.498,0.086
16.873,0.000,0.000,0.000,3.818,-6.449,-0.679,53.711,-74.765,5.492,0.000,-0.093,-0.117,-0.328,0.145,1.236,-0.055,0.024,1.666,1.153,3.303,0.323,3.467,3.498,0.086
16.901,0.000,0.000,0.000,3.815,-6.460,-0.708,53.863,-75.023,5.464,-0.012,-0.119,-0.165,-0.332,0.146,1.236,-0.064,0.021,1.657,1.153,3.303,0.323,3.467,3.498,0.086
16.930,0.000,0.000,0.000,3.812,-6.463,-0.725,53.947,-75.165,5.449,-0.033,-0.013,-0.269,-0.338,0.146,1.234,-0.066,0.020,1.639,1.153,3.303,0.323,3.467,3.498,0.086
16.964,0.000,0.000,0.000,3.804,-6.463,-0.755,54.092,-75.411,5.420,-0.012,0.020,-0.283,-0.341,0.147,1.232,-0.075,0.028,1.635,1.153,3.303,0.323,3.467,3.498,0.086
16.993,0.000,0.000,0.000,3.797,-6.460,-0.769,54.168,-75.540,5.405,-0.046,-0.045,-0.154,-0.346,0.147,1.227,-0.080,0.033,1.615,1.153,3.303,0.323,3.467,3.498,0.086
17.024,0.000,0.000,0.000,3.782,-6.452,-0.791,54.319,-75.799,5.374,-0.005,-0.072,-0.111,-0.349,0.147,1.225,-0.086,0.037,1.616,1.153,3.303,0.323,3.467,3.498,0.086
17.050,0.000,0.000,0.000,3.773,-6.446,-0.800,54.395,-75.928,5.358,0.105,-0.186,-0.017,-0.352,0.147,1.220,-0.089,0.035,1.582,1.153,3.303,0.323,3.467,3.498,0.086
17.077,0.000,0.000,0.000,3.754,-6.434,-0.813,54.546,-76.185,5.326,-0.004,-0.230,-0.037,-0.354,0.146,1.218,-0.097,0.030,1.590,1.153,3.303,0.323,3.467,3.498,0.086
17.104,0.000,0.000,0.000,3.744,-6.428,-0.818,54.621,-76.314,5.309,-0.110,-0.221,-0.053,-0.355,0.145,1.217,-0.093,0.028,1.584,1.153,3.303,0.323,3.467,3.498,0.086
17.130,0.000,0.000,0.000,3.735,-6.423,-0.819,54.695,-76.442,5.293,0.065,-0.281,0.070,-0.357,0.142,1.213,-0.092,0.024,1.602,1.153,3.303,0.323,3.467,3.498,0.086
17.159,0.000,0.000,0.000,3.717,-6.414,-0.815,54.844,-76.699,5.260,0.297,-0.418,0.188,-0.358,0.140,1.212,-0.102,0.011,1.604,1.153,3.303,0.323,3.467,3.498,0.086
17.186,0.000,0.000,0.000,3.711,-6.409,-0.810,54.919,-76.827,5.244,0.492,-0.541,0.238,-0.358,0.137,1.211,-0.109,-0.013,1.593,1.153,3.303,0.323,3.467,3.498,0.086
17.214,0.000,0.000,0.000,3.711,-6.407,-0.807,54.993,-76.955,5.228,-0.098,-1.026,-0.257,-0.356,0.128,1.211,-0.119,-0.029,1.623,1.329,3.771,0.312,3.966,3.998,0.087
17.241,0.000,0.000,0.000,3.721,-6.410,-0.795,55.141,-77.212,5.196,-0.853,-0.788,-0.764,-0.356,0.121,1.210,-0.088,-0.072,1.652,1.329,3.771,0.312,3.966,3.998,0.087
17.267,0.000,0.000,0.000,3.722,-6.419,-0.779,55.216,-77.340,5.180,-0.720,0.380,-0.500,-0.361,0.108,1.203,-0.048,-0.063,1.654,1.329,3.771,0.312,3.966,3.998,0.087
17.294,0.000,0.000,0.000,3.720,-6.433,-0.760,55.290,-77.468,5.165,-0.029,0.469,0.032,-0.364,0.103,1.199,-0.038,-0.055,1.644,1.329,3.771,0.312,3.966,3.998,0.087
17.320,0.000,0.000,0.000,3.713,-6.465,-0.722,55.439,-77.726,5.135,0.513,0.154,0.214,-0.368,0.100,1.196,-0.037,-0.040,1.627,1.329,3.771,0.312,3.966,3.998,0.087
17.345,0.000,0.000,0.000,3.710,-6.483,-0.709,55.517,-77.862,5.120,0.465,-0.132,0.155,-0.369,0.094,1.192,-0.043,-0.047,1.619,1.329,3.771,0.312,3.966,3.998,0.087
17.371,0.000,0.000,0.000,3.708,-6.498,-0.701,55.587,-77.986,5.107,0.239,0.121,0.068,-0.369,0.091,1.190,-0.053,-0.049,1.613,1.329,3.771,0.312,3.966,3.998,0.087
17.399,0.000,0.000,0.000,3.707,-6.529,-0.697,55.739,-78.253,5.078,0.078,0.419,-0.038,-0.368,0.089,1.189,-0.060,-0.042,1.614,1.329,3.771,0.312,3.966,3.998,0.087
17.428,0.000,0.000,0.000,3.706,-6.541,-0.702,55.810,-78.377,5.065,-0.068,0.706,-0.274,-0.367,0.089,1.186,-0.060,-0.026,1.622,1.329,3.771,0.312,3.966,3.998,0.087
17.453,0.000,0.000,0.000,3.704,-6.553,-0.711,55.888,-78.514,5.050,-0.117,0.678,-0.336,-0.367,0.091,1.183,-0.061,-0.011,1.611,1.329,3.771,0.312,3.966,3.998,0.087
17.481,0.000,0.000,0.000,3.696,-6.573,-0.738,56.032,-78.770,5.022,-0.215,0.596,-0.320,-0.367,0.094,1.181,-0.057,0.023,1.619,1.329,3.771,0.312,3.966,3.998,0.087
17.510,0.000,0.000,0.000,3.691,-6.582,-0.755,56.106,-78.902,5.007,-0.277,0.478,-0.097,-0.368,0.102,1.175,-0.052,0.037,1.623,1.329,3.771,0.312,3.966,3.998,0.087
17.538,0.000,0.000,0.000,3.680,-6.596,-0.789,56.253,-79.166,4.976,-0.224,0.386,0.013,-0.370,0.107,1.172,-0.047,0.054,1.610,1.329,3.771,0.312,3.966,3.998,0.087
17.563,0.000,0.000,0.000,3.675,-6.601,-0.805,56.327,-79.298,4.960,-0.116,0.231,0.095,-0.371,0.112,1.170,-0.046,0.058,1.605,1.329,3.771,0.312,3.966,3.998,0.087
17.593,0.000,0.000,0.000,3.672,-6.605,-0.821,56.400,-79.430,4.944,-0.012,0.116,0.219,-0.374,0.122,1.167,-0.049,0.060,1.586,1.329,3.771,0.312,3.966,3.998,0.087
17.622,0.000,0.000,0.000,3.667,-6.610,-0.848,56.547,-79.694,4.910,-0.024,0.142,0.310,-0.376,0.126,1.166,-0.054,0.062,1.584,1.329,3.771,0.312,3.966,3.998,0.087
17.649,0.000,0.000,0.000,3.666,-6.611,-0.859,56.620,-79.826,4.893,0.077,0.195,0.428,-0.378,0.135,1.167,-0.055,0.065,1.621,1.329,3.771,0.312,3.966,3.998,0.087
17.674,0.000,0.000,0.000,3.666,-6.609,-0.868,56.697,-79.965,4.875,0.130,0.131,0.451,-0.379,0.139,1.169,-0.063,0.065,1.630,1.329,3.771,0.312,3.966,3.998,0.087
17.701,0.000,0.000,0.000,3.671,-6.604,-0.880,56.840,-80.223,4.841,0.178,-0.053,0.331,-0.379,0.144,1.172,-0.072,0.057,1.623,1.525,4.231,0.284,4.466,4.497,0.066
17.728,0.000,0.000,0.000,3.676,-6.601,-0.882,56.914,-80.355,4.823,0.446,-0.605,-0.056,-0.378,0.148,1.176,-0.079,0.049,1.628,1.525,4.231,0.284,4.466,4.497,0.066
17.754,0.000,0.000,0.000,3.678,-6.600,-0.884,56.987,-80.487,4.806,0.341,-0.305,0.120,-0.377,0.148,1.178,-0.084,0.044,1.619,1.525,4.231,0.284,4.466,4.497,0.066
17.780,0.000,0.000,0.000,3.678,-6.600,-0.887,57.135,-80.751,4.770,0.000,0.153,0.385,-0.375,0.149,1.180,-0.088,0.042,1.605,1.525,4.231,0.284,4.466,4.497,0.066
17.807,0.000,0.000,0.000,3.676,-6.602,-0.887,57.208,-80.883,4.753,-0.652,0.083,0.448,-0.374,0.151,1.187,-0.079,0.047,1.626,1.525,4.231,0.284,4.466,4.497,0.066
17.832,0.000,0.000,0.000,3.675,-6.605,-0.882,57.282,-81.015,4.735,-0.505,-0.351,0.380,-0.375,0.151,1.191,-0.057,0.047,1.648,1.525,4.231,0.284,4.466,4.497,0.066
17.859,0.000,0.000,0.000,3.676,-6.620,-0.856,57.429,-81.279,4.700,-0.138,-0.804,0.342,-0.376,0.151,1.196,-0.035,0.016,1.678,1.525,4.231,0.284,4.466,4.497,0.066
17.885,0.000,0.000,0.000,3.680,-6.630,-0.839,57.502,-81.412,4.683,0.125,-0.863,0.269,-0.378,0.149,1.200,-0.038,-0.001,1.711,1.525,4.231,0.284,4.466,4.497,0.066
17.913,0.000,0.000,0.000,3.685,-6.642,-0.822,57.576,-81.544,4.667,-0.098,0.193,0.045,-0.380,0.143,1.210,-0.032,-0.012,1.703,1.525,4.231,0.284,4.466,4.497,0.066
17.940,0.000,0.000,0.000,3.694,-6.667,-0.794,57.723,-81.811,4.634,-0.259,0.591,0.026,-0.381,0.141,1.213,-0.022,0.006,1.712,1.525,4.231,0.284,4.466,4.497,0.066
17.968,0.000,0.000,0.000,3.698,-6.680,-0.784,57.805,-81.957,4.617,-0.100,0.607,0.020,-0.385,0.141,1.220,-0.019,0.020,1.695,1.525,4.231,0.284,4.466,4.497,0.066
17.996,0.000,0.000,0.000,3.702,-6.699,-0.779,57.945,-82.212,4.587,-0.028,0.285,-0.043,-0.386,0.143,1.223,-0.016,0.040,1.693,1.525,4.231,0.284,4.466,4.497,0.066
18.022,0.000,0.000,0.000,3.702,-6.708,-0.782,58.019,-82.346,4.572,0.000,0.012,-0.086,-0.388,0.145,1.226,-0.015,0.043,1.694,1.525,4.231,0.284,4.466,4.497,0.066
18.049,0.000,0.000,0.000,3.703,-6.716,-0.789,58.093,-82.480,4.556,-0.012,0.073,-0.007,-0.391,0.148,1.230,-0.015,0.043,1.682,1.525,4.231,0.284,4.466,4.497,0.066
18.074,0.000,0.000,0.000,3.703,-6.723,-0.798,58.167,-82.614,4.540,-0.002,0.101,-0.007,-0.392,0.150,1.231,-0.018,0.047,1.672,1.525,4.231,0.284,4.466,4.497,0.066
18.099,0.000,0.000,0.000,3.701,-6.733,-0.824,58.316,-82.883,4.508,0.031,0.088,-0.028,-0.393,0.151,1.233,-0.024,0.055,1.661,1.525,4.231,0.284,4.466,4.497,0.066
18.125,0.000,0.000,0.000,3.698,-6.735,-0.839,58.390,-83.018,4.491,0.038,0.060,-0.035,-0.394,0.153,1.234,-0.024,0.056,1.653,1.525,4.231,0.284,4.466,4.497,0.066
18.149,0.000,0.000,0.000,3.694,-6.736,-0.856,58.463,-83.153,4.474,0.046,0.026,0.017,-0.395,0.156,1.236,-0.030,0.062,1.646,1.525,4.231,0.284,4.466,4.497,0.066
18.174,0.000,0.000,0.000,3.690,-6.736,-0.873,58.537,-83.288,4.457,0.086,-0.050,0.035,-0.395,0.157,1.237,-0.031,0.063,1.647,1.525,4.231,0.284,4.466,4.497,0.066
18.199,0.000,0.000,0.000,3.679,-6.731,-0.905,58.685,-83.557,4.421,0.088,-0.139,0.044,-0.396,0.158,1.238,-0.040,0.062,1.636,1.688,4.704,0.250,4.964,4.997,0.080
18.225,0.000,0.000,0.000,3.674,-6.728,-0.919,58.758,-83.692,4.403,0.071,-0.177,0.039,-0.396,0.159,1.239,-0.046,0.061,1.606,1.688,4.704,0.250,4.964,4.997,0.080
18.250,0.000,0.000,0.000,3.668,-6.723,-0.930,58.832,-83.826,4.384,0.067,-0.081,0.051,-0.395,0.159,1.241,-0.046,0.058,1.602,1.688,4.704,0.250,4.964,4.997,0.080
18.277,0.000,0.000,0.000,3.656,-6.712,-0.946,58.978,-84.095,4.347,0.086,-0.105,0.038,-0.395,0.159,1.242,-0.051,0.055,1.589,1.688,4.704,0.250,4.964,4.997,0.080
18.302,0.000,0.000,0.000,3.651,-6.707,-0.949,59.051,-84.229,4.328,0.087,-0.170,-0.033,-0.394,0.158,1.242,-0.053,0.052,1.580,1.688,4.704,0.250,4.964,4.997,0.080
18.328,0.000,0.000,0.000,3.646,-6.702,-0.950,59.124,-84.363,4.309,0.086,0.018,0.012,-0.393,0.157,1.244,-0.053,0.051,1.582,1.688,4.704,0.250,4.964,4.997,0.080
18.354,0.000,0.000,0.000,3.641,-6.697,-0.949,59.197,-84.497,4.290,0.204,-0.038,0.094,-0.392,0.157,1.244,-0.056,0.053,1.567,1.688,4.704,0.250,4.964,4.997,0.080
18.382,0.000,0.000,0.000,3.631,-6.686,-0.942,59.342,-84.765,4.252,0.408,-0.193,0.164,-0.391,0.156,1.245,-0.070,0.038,1.546,1.688,4.704,0.250,4.964,4.997,0.080
18.410,0.000,0.000,0.000,3.633,-6.681,-0.941,59.415,-84.898,4.233,-0.070,-0.836,-0.314,-0.386,0.152,1.247,-0.077,0.029,1.528,1.688,4.704,0.250,4.964,4.997,0.080
18.435,0.000,0.000,0.000,3.649,-6.679,-0.934,59.561,-85.165,4.196,-1.064,-0.833,-0.976,-0.385,0.148,1.246,-0.042,-0.015,1.538,1.688,4.704,0.250,4.964,4.997,0.080
18.461,0.000,0.000,0.000,3.656,-6.685,-0.921,59.634,-85.299,4.177,-1.455,-0.313,-1.189,-0.387,0.144,1.244,0.002,-0.014,1.558,1.688,4.704,0.250,4.964,4.997,0.080
18.486,0.000,0.000,0.000,3.659,-6.694,-0.905,59.707,-85.433,4.159,-0.209,0.757,-0.272,-0.395,0.137,1.234,0.022,-0.007,1.528,1.688,4.704,0.250,4.964,4.997,0.080
18.513,0.000,0.000,0.000,3.661,-6.704,-0.889,59.780,-85.567,4.141,0.391,0.572,-0.064,-0.400,0.136,1.229,0.036,0.008,1.510,1.688,4.704,0.250,4.964,4.997,0.080
18.539,0.000,0.000,0.000,3.665,-6.725,-0.867,59.927,-85.835,4.106,0.502,0.042,-0.142,-0.402,0.135,1.224,0.020,0.017,1.463,1.688,4.704,0.250,4.964,4.997,0.080
18.566,0.000,0.000,0.000,3.667,-6.733,-0.863,60.000,-85.970,4.089,0.131,-0.010,-0.072,-0.405,0.134,1.216,0.017,0.013,1.432,1.688,4.704,0.250,4.964,4.997,0.080
18.592,0.000,0.000,0.000,3.671,-6.739,-0.863,60.073,-86.105,4.071,0.155,0.236,-0.111,-0.406,0.134,1.212,0.008,0.011,1.408,1.688,4.704,0.250,4.964,4.997,0.080
18.619,0.000,0.000,0.000,3.676,-6.747,-0.871,60.220,-86.374,4.037,0.221,0.315,-0.147,-0.406,0.134,1.208,-0.007,0.025,1.390,1.688,4.704,0.250,4.964,4.997,0.080
18.645,0.000,0.000,0.000,3.677,-6.747,-0.883,60.294,-86.509,4.019,0.204,0.272,-0.167,-0.406,0.135,1.204,-0.008,0.030,1.400,1.688,4.704,0.250,4.964,4.997,0.080
18.670,0.000,0.000,0.000,3.678,-6.746,-0.897,60.367,-86.644,4.001,-0.033,0.139,-0.153,-0.405,0.138,1.197,-0.018,0.038,1.392,1.688,4.704,0.250,4.964,4.997,0.080
18.697,0.000,0.000,0.000,3.675,-6.740,-0.933,60.514,-86.914,3.965,-0.319,0.323,-0.162,-0.405,0.140,1.192,-0.014,0.054,1.379,1.871,5.169,0.338,5.457,5.497,0.073
18.724,0.000,0.000,0.000,3.670,-6.736,-0.949,60.588,-87.049,3.946,-0.711,0.673,-0.173,-0.405,0.142,1.189,0.003,0.067,1.378,1.871,5.169,0.338,5.457,5.497,0.073
18.751,0.000,0.000,0.000,3.664,-6.732,-0.960,60.661,-87.184,3.927,-0.623,0.404,-0.062,-0.411,0.150,1.182,0.019,0.086,1.342,1.871,5.169,0.338,5.457,5.497,0.073
18.779,0.000,0.000,0.000,3.648,-6.724,-0.971,60.807,-87.453,3.888,-0.056,-0.005,0.038,-0.415,0.154,1.179,0.031,0.096,1.339,1.871,5.169,0.338,5.457,5.497,0.073
18.805,0.000,0.000,0.000,3.641,-6.718,-0.975,60.884,-87.594,3.868,0.384,-0.140,0.158,-0.419,0.158,1.177,0.026,0.092,1.325,1.871,5.169,0.338,5.457,5.497,0.073
18.830,0.000,0.000,0.000,3.634,-6.712,-0.979,60.953,-87.721,3.849,0.183,0.440,0.358,-0.422,0.165,1.173,0.012,0.094,1.318,1.871,5.169,0.338,5.457,5.497,0.073
18.856,0.000,0.000,0.000,3.622,-6.698,-0.983,61.098,-87.990,3.810,0.112,0.551,0.397,-0.423,0.170,1.173,0.002,0.118,1.308,1.871,5.169,0.338,5.457,5.497,0.073
18.882,0.000,0.000,0.000,3.614,-6.689,-0.983,61.171,-88.123,3.790,0.248,0.381,0.428,-0.424,0.174,1.174,-0.000,0.125,1.312,1.871,5.169,0.338,5.457,5.497,0.073
18.910,0.000,0.000,0.000,3.608,-6.681,-0.980,61.243,-88.257,3.771,1.015,-0.480,1.027,-0.422,0.183,1.178,-0.013,0.123,1.322,1.871,5.169,0.338,5.457,5.497,0.073
18.938,0.000,0.000,0.000,3.602,-6.662,-0.969,61.387,-88.524,3.732,1.261,-0.473,1.042,-0.418,0.185,1.183,-0.069,0.093,1.314,1.871,5.169,0.338,5.457,5.497,0.073
18.964,0.000,0.000,0.000,3.604,-6.651,-0.965,61.459,-88.657,3.712,1.148,-0.296,0.974,-0.413,0.187,1.189,-0.090,0.085,1.325,1.871,5.169,0.338,5.457,5.497,0.073
18.990,0.000,0.000,0.000,3.609,-6.641,-0.961,61.531,-88.790,3.693,0.031,-0.059,0.663,-0.398,0.189,1.205,-0.105,0.071,1.390,1.871,5.169,0.338,5.457,5.497,0.073
19.019,0.000,0.000,0.000,3.625,-6.625,-0.949,61.676,-89.055,3.655,-0.231,-0.357,0.393,-0.392,0.189,1.214,-0.089,0.056,1.422,1.871,5.169,0.338,5.457,5.497,0.073
19.045,0.000,0.000,0.000,3.634,-6.623,-0.939,61.748,-89.188,3.636,0.430,-0.544,0.408,-0.382,0.187,1.231,-0.087,0.044,1.433,1.871,5.169,0.338,5.457,5.497,0.073
19.072,0.000,0.000,0.000,3.643,-6.623,-0.929,61.825,-89.327,3.616,0.756,-0.534,0.373,-0.376,0.184,1.239,-0.087,0.028,1.437,1.871,5.169,0.338,5.457,5.497,0.073
19.099,0.000,0.000,0.000,3.660,-6.627,-0.924,61.967,-89.585,3.580,0.630,-0.605,0.232,-0.369,0.181,1.247,-0.109,0.006,1.424,1.871,5.169,0.338,5.457,5.497,0.073
19.125,0.000,0.000,0.000,3.667,-6.630,-0.928,62.041,-89.718,3.562,0.023,-0.556,0.109,-0.363,0.177,1.255,-0.107,-0.006,1.431,1.871,5.169,0.338,5.457,5.497,0.073
19.150,0.000,0.000,0.000,3.672,-6.635,-0.933,62.114,-89.850,3.543,-0.546,-0.165,0.221,-0.353,0.167,1.268,-0.092,-0.010,1.446,1.871,5.169,0.338,5.457,5.497,0.073
19.175,0.000,0.000,0.000,3.681,-6.645,-0.941,62.261,-90.116,3.506,-0.312,-0.145,0.268,-0.350,0.162,1.275,-0.079,-0.014,1.455,1.871,5.169,0.338,5.457,5.497,0.073
19.201,0.000,0.000,0.000,3.686,-6.649,-0.948,62.335,-90.249,3.487,-0.143,-0.182,0.202,-0.348,0.158,1.282,-0.070,-0.025,1.456,2.017,5.648,0.393,5.954,5.996,0.105
19.229,0.000,0.000,0.000,3.691,-6.652,-0.957,62.412,-90.389,3.467,-0.197,0.002,-0.059,-0.346,0.150,1.293,-0.073,-0.028,1.449,2.017,5.648,0.393,5.954,5.996,0.105
19.257,0.000,0.000,0.000,3.697,-6.654,-0.983,62.556,-90.648,3.429,-0.297,0.351,-0.090,-0.345,0.147,1.298,-0.069,-0.013,1.442,2.017,5.648,0.393,5.954,5.996,0.105
19.284,0.000,0.000,0.000,3.696,-6.654,-1.002,62.630,-90.781,3.409,-0.347,0.756,-0.101,-0.346,0.145,1.302,-0.059,0.002,1.431,2.017,5.648,0.393,5.954,5.996,0.105
19.310,0.000,0.000,0.000,3.693,-6.653,-1.025,62.704,-90.914,3.389,-0.241,1.005,-0.060,-0.348,0.146,1.308,-0.061,0.036,1.431,2.017,5.648,0.393,5.954,5.996,0.105
19.335,0.000,0.000,0.000,3.684,-6.646,-1.077,62.852,-91.180,3.347,-0.222,0.709,0.090,-0.350,0.150,1.311,-0.061,0.069,1.427,2.017,5.648,0.393,5.954,5.996,0.105
19.360,0.000,0.000,0.000,3.681,-6.641,-1.103,62.925,-91.313,3.325,-0.293,0.285,0.109,-0.352,0.154,1.313,-0.054,0.075,1.442,2.017,5.648,0.393,5.954,5.996,0.105
19.387,0.000,0.000,0.000,3.679,-6.635,-1.126,62.999,-91.446,3.303,-0.486,-0.235,-0.114,-0.357,0.162,1.318,-0.048,0.069,1.438,2.017,5.648,0.393,5.954,5.996,0.105
19.414,0.000,0.000,0.000,3.678,-6.629,-1.144,63.072,-91.579,3.280,-0.397,-0.133,-0.155,-0.361,0.164,1.319,-0.037,0.064,1.442,2.017,5.648,0.393,5.954,5.996,0.105
19.442,0.000,0.000,0.000,3.676,-6.616,-1.170,63.219,-91.844,3.234,-0.286,0.034,-0.112,-0.365,0.166,1.320,-0.026,0.062,1.441,2.017,5.648,0.393,5.954,5.996,0.105
19.469,0.000,0.000,0.000,3.675,-6.609,-1.178,63.293,-91.976,3.210,-0.211,0.236,-0.093,-0.374,0.171,1.322,-0.026,0.067,1.409,2.017,5.648,0.393,5.954,5.996,0.105
19.496,0.000,0.000,0.000,3.673,-6.593,-1.182,63.440,-92.240,3.163,-0.133,0.079,-0.068,-0.378,0.173,1.322,-0.019,0.065,1.405,2.017,5.648,0.393,5.954,5.996,0.105
19.523,0.000,0.000,0.000,3.674,-6.584,-1.181,63.513,-92.372,3.139,0.023,-0.153,-0.082,-0.382,0.176,1.322,-0.017,0.062,1.397,2.017,5.648,0.393,5.954,5.996,0.105
19.548,0.000,0.000,0.000,3.674,-6.574,-1.179,63.587,-92.503,3.116,0.038,0.242,-0.117,-0.388,0.179,1.322,-0.026,0.067,1.384,2.017,5.648,0.393,5.954,5.996,0.105
19.575,0.000,0.000,0.000,3.670,-6.554,-1.173,63.734,-92.766,3.069,-0.018,0.221,-0.021,-0.390,0.182,1.322,-0.025,0.075,1.385,2.017,5.648,0.393,5.954,5.996,0.105
19.601,0.000,0.000,0.000,3.669,-6.545,-1.166,63.807,-92.897,3.045,-0.081,-0.144,0.084,-0.393,0.184,1.321,-0.021,0.072,1.388,2.017,5.648,0.393,5.954,5.996,0.105
19.627,0.000,0.000,0.000,3.669,-6.538,-1.154,63.881,-93.027,3.022,-0.032,-1.103,-0.400,-0.397,0.184,1.320,-0.010,0.053,1.405,2.017,5.648,0.393,5.954,5.996,0.105
19.656,0.000,0.000,0.000,3.668,-6.534,-1.119,64.031,-93.295,2.976,0.087,-0.702,-0.440,-0.399,0.181,1.319,-0.008,0.030,1.392,2.017,5.648,0.393,5.954,5.996,0.105
19.684,0.000,0.000,0.000,3.666,-6.536,-1.102,64.101,-93.420,2.954,0.209,-0.031,-0.122,-0.401,0.178,1.317,-0.002,0.018,1.394,2.017,5.648,0.393,5.954,5.996,0.105
19.714,0.000,0.000,0.000,3.664,-6.539,-1.088,64.178,-93.557,2.931,0.045,0.473,0.325,-0.402,0.174,1.314,0.000,0.027,1.400,2.142,6.131,0.481,6.446,6.493,0.159
19.745,0.000,0.000,0.000,3.660,-6.545,-1.067,64.320,-93.812,2.889,0.042,-0.133,0.149,-0.403,0.173,1.314,0.000,0.034,1.417,2.142,6.131,0.481,6.446,6.493,0.159
19.771,0.000,0.000,0.000,3.660,-6.547,-1.061,64.394,-93.943,2.868,0.051,-0.083,0.023,-0.404,0.172,1.314,0.000,0.031,1.428,2.142,6.131,0.481,6.446,6.493,0.159
19.798,0.000,0.000,0.000,3.662,-6.550,-1.058,64.540,-94.205,2.826,-0.017,0.216,-0.097,-0.404,0.172,1.314,-0.003,0.032,1.423,2.142,6.131,0.481,6.446,6.493,0.159
19.825,0.000,0.000,0.000,3.662,-6.550,-1.063,64.613,-94.336,2.805,-0.183,0.520,-0.142,-0.405,0.173,1.314,-0.007,0.046,1.408,2.142,6.131,0.481,6.446,6.493,0.159
19.851,0.000,0.000,0.000,3.662,-6.548,-1.072,64.686,-94.467,2.783,-0.224,0.363,-0.170,-0.406,0.175,1.313,-0.003,0.056,1.409,2.142,6.131,0.481,6.446,6.493,0.159
19.879,0.000,0.000,0.000,3.662,-6.542,-1.093,64.833,-94.729,2.740,-0.237,0.136,-0.214,-0.407,0.177,1.312,0.000,0.066,1.404,2.142,6.131,0.481,6.446,6.493,0.159
19.905,0.000,0.000,0.000,3.662,-6.536,-1.103,64.906,-94.859,2.718,-0.249,-0.009,-0.238,-0.409,0.180,1.311,-0.002,0.065,1.406,2.142,6.131,0.481,6.446,6.493,0.159
19.930,0.000,0.000,0.000,3.662,-6.530,-1.113,64.979,-94.990,2.696,-0.114,0.150,-0.114,-0.412,0.184,1.307,0.003,0.066,1.408,2.142,6.131,0.481,6.446,6.493,0.159
19.956,0.000,0.000,0.000,3.663,-6.513,-1.131,65.126,-95.251,2.651,-0.032,0.247,-0.065,-0.414,0.186,1.306,-0.003,0.074,1.393,2.142,6.131,0.481,6.446,6.493,0.159
19.982,0.000,0.000,0.000,3.663,-6.502,-1.140,65.199,-95.381,2.628,0.056,0.250,-0.031,-0.416,0.188,1.304,-0.015,0.079,1.377,2.142,6.131,0.481,6.446,6.493,0.159
20.011,0.000,0.000,0.000,3.664,-6.490,-1.149,65.272,-95.511,2.605,0.159,0.194,0.088,-0.419,0.194,1.301,-0.017,0.083,1.381,2.142,6.131,0.481,6.446,6.493,0.159
20.039,0.000,0.000,0.000,3.668,-6.466,-1.167,65.419,-95.770,2.559,0.123,0.209,0.187,-0.419,0.197,1.300,-0.029,0.087,1.378,2.142,6.131,0.481,6.446,6.493,0.159
20.065,0.000,0.000,0.000,3.673,-6.452,-1.173,65.496,-95.906,2.534,0.082,0.227,0.270,-0.420,0.200,1.300,-0.040,0.086,1.385,2.142,6.131,0.481,6.446,6.493,0.159
20.090,0.000,0.000,0.000,3.679,-6.438,-1.177,65.566,-96.028,2.512,0.150,0.288,0.403,-0.420,0.206,1.301,-0.041,0.091,1.411,2.142,6.131,0.481,6.446,6.493,0.159
20.117,0.000,0.000,0.000,3.696,-6.408,-1.180,65.713,-96.285,2.465,0.247,0.066,0.359,-0.419,0.210,1.303,-0.058,0.091,1.406,2.142,6.131,0.481,6.446,6.493,0.159
20.144,0.000,0.000,0.000,3.705,-6.392,-1.179,65.787,-96.413,2.441,0.268,-0.357,0.084,-0.418,0.213,1.305,-0.068,0.082,1.416,2.142,6.131,0.481,6.446,6.493,0.159
20.170,0.000,0.000,0.000,3.714,-6.377,-1.177,65.865,-96.547,2.417,-0.175,0.106,-0.032,-0.416,0.217,1.308,-0.070,0.079,1.422,2.142,6.131,0.481,6.446,6.493,0.159
20.198,0.000,0.000,0.000,3.728,-6.355,-1.170,66.011,-96.796,2.371,-0.549,0.178,-0.241,-0.416,0.219,1.310,-0.053,0.086,1.418,2.272,6.614,0.553,6.941,6.991,0.208
20.228,0.000,0.000,0.000,3.730,-6.347,-1.161,66.085,-96.923,2.348,-0.529,0.040,-0.279,-0.419,0.223,1.310,-0.029,0.098,1.415,2.272,6.614,0.553,6.941,6.991,0.208
20.254,0.000,0.000,0.000,3.728,-6.343,-1.149,66.160,-97.049,2.324,-0.087,-0.187,-0.010,-0.421,0.225,1.310,-0.018,0.099,1.435,2.272,6.614,0.553,6.941,6.991,0.208
20.283,0.000,0.000,0.000,3.720,-6.342,-1.125,66.309,-97.303,2.279,0.274,-0.517,0.038,-0.424,0.226,1.309,-0.013,0.089,1.443,2.272,6.614,0.553,6.941,6.991,0.208
20.310,0.000,0.000,0.000,3.715,-6.346,-1.116,66.383,-97.430,2.257,0.192,-0.886,-0.015,-0.426,0.224,1.308,-0.007,0.075,1.449,2.272,6.614,0.553,6.941,6.991,0.208
20.336,0.000,0.000,0.000,3.704,-6.361,-1.104,66.531,-97.684,2.212,0.068,-0.702,0.050,-0.426,0.220,1.308,-0.002,0.044,1.452,2.272,6.614,0.553,6.941,6.991,0.208
20.363,0.000,0.000,0.000,3.700,-6.370,-1.102,66.605,-97.811,2.190,0.016,-0.349,0.182,-0.426,0.216,1.308,-0.004,0.037,1.461,2.272,6.614,0.553,6.941,6.991,0.208
20.389,0.000,0.000,0.000,3.697,-6.379,-1.104,66.679,-97.939,2.168,-0.261,0.213,0.214,-0.427,0.208,1.309,0.002,0.031,1.502,2.272,6.614,0.553,6.941,6.991,0.208
20.419,0.000,0.000,0.000,3.694,-6.396,-1.113,66.827,-98.194,2.124,-0.249,0.318,0.011,-0.429,0.205,1.310,0.011,0.045,1.517,2.272,6.614,0.553,6.941,6.991,0.208
20.449,0.000,0.000,0.000,3.692,-6.403,-1.123,66.901,-98.322,2.101,-0.023,0.310,-0.088,-0.431,0.203,1.312,0.011,0.052,1.514,2.272,6.614,0.553,6.941,6.991,0.208
20.478,0.000,0.000,0.000,3.684,-6.413,-1.151,67.049,-98.579,2.056,-0.053,0.197,-0.033,-0.433,0.202,1.312,0.006,0.070,1.498,2.272,6.614,0.553,6.941,6.991,0.208
20.507,0.000,0.000,0.000,3.679,-6.415,-1.168,67.122,-98.707,2.033,-0.199,0.098,-0.032,-0.436,0.203,1.313,0.003,0.076,1.489,2.272,6.614,0.553,6.941,6.991,0.208
20.538,0.000,0.000,0.000,3.668,-6.415,-1.202,67.269,-98.964,1.985,-0.110,0.092,-0.018,-0.437,0.203,1.313,-0.001,0.085,1.476,2.272,6.614,0.553,6.941,6.991,0.208
20.566,0.000,0.000,0.000,3.662,-6.412,-1.220,67.342,-99.092,1.961,-0.010,0.078,-0.029,-0.440,0.204,1.313,-0.003,0.086,1.486,2.272,6.614,0.553,6.941,6.991,0.208
20.591,0.000,0.000,0.000,3.655,-6.407,-1.237,67.419,-99.226,1.935,-0.180,0.137,-0.017,-0.442,0.205,1.313,-0.011,0.092,1.491,2.272,6.614,0.553,6.941,6.991,0.208
20.619,0.000,0.000,0.000,3.643,-6.395,-1.264,67.562,-99.476,1.887,-0.351,0.189,0.031,-0.444,0.206,1.313,-0.007,0.095,1.507,2.272,6.614,0.553,6.941,6.991,0.208
20.645,0.000,0.000,0.000,3.639,-6.388,-1.270,67.634,-99.604,1.861,-0.381,0.180,0.042,-0.447,0.208,1.313,-0.001,0.098,1.533,2.272,6.614,0.553,6.941,6.991,0.208
20.670,0.000,0.000,0.000,3.637,-6.380,-1.271,67.707,-99.732,1.836,0.032,-0.032,0.050,-0.452,0.210,1.313,-0.000,0.097,1.552,2.272,6.614,0.553,6.941,6.991,0.208
20.698,0.000,0.000,0.000,3.635,-6.363,-1.265,67.860,-99.999,1.783,0.222,-0.109,0.116,-0.454,0.211,1.314,-0.013,0.088,1.543,2.400,7.098,0.564,7.440,7.488,0.259
20.725,0.000,0.000,0.000,3.637,-6.356,-1.260,67.925,-100.114,1.760,0.205,0.016,0.131,-0.456,0.213,1.315,-0.020,0.087,1.547,2.400,7.098,0.564,7.440,7.488,0.259
20.751,0.000,0.000,0.000,3.640,-6.347,-1.252,67.998,-100.241,1.735,0.296,0.175,0.005,-0.457,0.214,1.316,-0.027,0.084,1.535,2.400,7.098,0.564,7.440,7.488,0.259
20.777,0.000,0.000,0.000,3.649,-6.332,-1.239,68.144,-100.494,1.685,0.275,-0.133,-0.093,-0.456,0.214,1.316,-0.039,0.076,1.517,2.400,7.098,0.564,7.440,7.488,0.259
20.801,0.000,0.000,0.000,3.655,-6.326,-1.231,68.217,-100.621,1.660,-0.073,-0.815,-0.485,-0.456,0.214,1.316,-0.039,0.060,1.522,2.400,7.098,0.564,7.440,7.488,0.259
20.827,0.000,0.000,0.000,3.659,-6.325,-1.219,68.290,-100.747,1.636,-0.764,-0.755,-1.246,-0.458,0.208,1.311,-0.011,0.045,1.520,2.400,7.098,0.564,7.440,7.488,0.259
20.853,0.000,0.000,0.000,3.658,-6.328,-1.200,68.363,-100.874,1.611,-0.211,-0.020,-0.899,-0.460,0.204,1.306,0.002,0.030,1.522,2.400,7.098,0.564,7.440,7.488,0.259
20.881,0.000,0.000,0.000,3.641,-6.343,-1.157,68.509,-101.127,1.564,0.401,0.407,-0.457,-0.462,0.200,1.300,0.009,0.056,1.523,2.400,7.098,0.564,7.440,7.488,0.259
20.909,0.000,0.000,0.000,3.627,-6.351,-1.139,68.582,-101.254,1.541,0.806,-0.250,0.580,-0.463,0.195,1.289,0.001,0.061,1.499,2.400,7.098,0.564,7.440,7.488,0.259
20.937,0.000,0.000,0.000,3.608,-6.369,-1.110,68.727,-101.509,1.496,0.764,-0.549,0.476,-0.460,0.193,1.286,-0.029,0.033,1.472,2.400,7.098,0.564,7.440,7.488,0.259
20.964,0.000,0.000,0.000,3.604,-6.378,-1.101,68.799,-101.636,1.474,0.712,-0.420,0.283,-0.456,0.189,1.284,-0.045,0.024,1.487,2.400,7.098,0.564,7.440,7.488,0.259
20.995,0.000,0.000,0.000,3.600,-6.394,-1.102,68.943,-101.892,1.430,0.441,0.672,-0.077,-0.447,0.182,1.281,-0.058,0.024,1.518,2.400,7.098,0.564,7.440,7.488,0.259
21.020,0.000,0.000,0.000,3.598,-6.401,-1.114,69.015,-102.020,1.408,0.109,1.059,-0.071,-0.442,0.182,1.280,-0.073,0.063,1.510,2.400,7.098,0.564,7.440,7.488,0.259
21.045,0.000,0.000,0.000,3.597,-6.408,-1.131,69.087,-102.148,1.386,-0.149,1.093,-0.028,-0.437,0.184,1.279,-0.072,0.085,1.529,2.400,7.098,0.564,7.440,7.488,0.259
21.070,0.000,0.000,0.000,3.595,-6.413,-1.152,69.159,-102.276,1.363,-0.293,0.362,-0.045,-0.430,0.191,1.276,-0.068,0.101,1.526,2.400,7.098,0.564,7.440,7.488,0.259
21.093,0.000,0.000,0.000,3.595,-6.419,-1.174,69.231,-102.404,1.340,-0.248,0.066,0.017,-0.428,0.195,1.275,-0.065,0.108,1.522,2.400,7.098,0.564,7.440,7.488,0.259
21.117,0.000,0.000,0.000,3.598,-6.426,-1.221,69.374,-102.661,1.292,-0.137,-0.109,0.070,-0.427,0.199,1.274,-0.063,0.103,1.536,2.400,7.098,0.564,7.440,7.488,0.259
21.142,0.000,0.000,0.000,3.601,-6.428,-1.245,69.446,-102.790,1.267,-0.090,-0.095,0.083,-0.426,0.202,1.274,-0.067,0.096,1.529,2.400,7.098,0.564,7.440,7.488,0.259
21.165,0.000,0.000,0.000,3.606,-6.428,-1.268,69.518,-102.918,1.242,-0.250,0.121,0.023,-0.425,0.208,1.273,-0.065,0.097,1.487,2.400,7.098,0.564,7.440,7.488,0.259
21.190,0.000,0.000,0.000,3.611,-6.428,-1.290,69.591,-103.047,1.216,-0.285,0.119,0.005,-0.425,0.211,1.273,-0.065,0.096,1.486,2.546,7.576,0.606,7.939,7.987,0.290
21.219,0.000,0.000,0.000,3.623,-6.423,-1.326,69.735,-103.304,1.164,-0.233,0.010,-0.016,-0.426,0.213,1.272,-0.060,0.097,1.478,2.546,7.576,0.606,7.939,7.987,0.290
21.243,0.000,0.000,0.000,3.628,-6.419,-1.338,69.808,-103.432,1.137,-0.132,-0.142,-0.056,-0.427,0.215,1.272,-0.058,0.094,1.489,2.546,7.576,0.606,7.939,7.987,0.290
21.268,0.000,0.000,0.000,3.632,-6.414,-1.346,69.880,-103.560,1.111,0.177,-0.045,0.089,-0.429,0.218,1.271,-0.063,0.092,1.497,2.546,7.576,0.606,7.939,7.987,0.290
21.293,0.000,0.000,0.000,3.635,-6.407,-1.352,69.953,-103.689,1.084,0.420,0.159,0.228,-0.429,0.219,1.271,-0.068,0.091,1.504,2.546,7.576,0.606,7.939,7.987,0.290
21.321,0.000,0.000,0.000,3.638,-6.388,-1.361,70.099,-103.945,1.029,0.552,0.304,0.128,-0.428,0.221,1.272,-0.100,0.104,1.457,2.546,7.576,0.606,7.939,7.987,0.290
21.347,0.000,0.000,0.000,3.638,-6.378,-1.365,70.171,-104.072,1.002,0.214,0.341,-0.224,-0.425,0.226,1.272,-0.106,0.113,1.462,2.546,7.576,0.606,7.939,7.987,0.290
21.373,0.000,0.000,0.000,3.638,-6.370,-1.366,70.248,-104.206,0.973,0.211,-1.113,-0.523,-0.422,0.227,1.272,-0.110,0.121,1.460,2.546,7.576,0.606,7.939,7.987,0.290
21.398,0.000,0.000,0.000,3.643,-6.366,-1.353,70.390,-104.454,0.920,0.356,-1.521,-0.723,-0.419,0.226,1.270,-0.106,0.063,1.465,2.546,7.576,0.606,7.939,7.987,0.290
21.423,0.000,0.000,0.000,3.649,-6.372,-1.342,70.466,-104.588,0.892,0.290,-1.235,-0.845,-0.416,0.222,1.266,-0.091,0.037,1.487,2.546,7.576,0.606,7.939,7.987,0.290
21.448,0.000,0.000,0.000,3.654,-6.382,-1.331,70.536,-104.709,0.867,-0.375,0.164,-0.403,-0.411,0.212,1.257,-0.092,0.027,1.442,2.546,7.576,0.606,7.939,7.987,0.290
21.473,0.000,0.000,0.000,3.658,-6.399,-1.319,70.612,-104.844,0.839,-0.469,0.496,0.020,-0.410,0.208,1.251,-0.065,0.031,1.483,2.546,7.576,0.606,7.939,7.987,0.290
21.499,0.000,0.000,0.000,3.669,-6.437,-1.296,70.759,-105.100,0.787,-0.368,0.299,0.259,-0.409,0.205,1.247,-0.040,0.038,1.518,2.546,7.576,0.606,7.939,7.987,0.290
21.525,0.000,0.000,0.000,3.676,-6.457,-1.287,70.829,-105.223,0.762,-0.222,-0.117,0.220,-0.410,0.203,1.244,-0.038,0.036,1.501,2.546,7.576,0.606,7.939,7.987,0.290
21.549,0.000,0.000,0.000,3.685,-6.477,-1.279,70.902,-105.352,0.736,-0.094,-0.371,-0.054,-0.411,0.198,1.238,-0.031,0.023,1.506,2.546,7.576,0.606,7.939,7.987,0.290
21.575,0.000,0.000,0.000,3.694,-6.497,-1.273,70.980,-105.488,0.710,-0.159,-0.139,-0.093,-0.412,0.194,1.236,-0.031,0.016,1.503,2.546,7.576,0.606,7.939,7.987,0.290
21.601,0.000,0.000,0.000,3.709,-6.529,-1.270,71.124,-105.742,0.660,-0.247,0.131,-0.133,-0.413,0.191,1.233,-0.025,0.017,1.496,2.546,7.576,0.606,7.939,7.987,0.290
21.625,0.000,0.000,0.000,3.714,-6.542,-1.274,71.198,-105.873,0.635,-0.309,0.299,-0.172,-0.415,0.189,1.231,-0.024,0.030,1.481,2.546,7.576,0.606,7.939,7.987,0.290
21.649,0.000,0.000,0.000,3.716,-6.552,-1.281,71.273,-106.004,0.609,-0.231,0.242,-0.186,-0.419,0.187,1.225,-0.019,0.036,1.494,2.546,7.576,0.606,7.939,7.987,0.290
21.675,0.000,0.000,0.000,3.716,-6.566,-1.302,71.421,-106.266,0.557,-0.095,0.142,-0.227,-0.422,0.186,1.222,-0.022,0.048,1.476,2.546,7.576,0.606,7.939,7.987,0.290
21.699,0.000,0.000,0.000,3.713,-6.569,-1.317,71.496,-106.398,0.531,-0.001,0.004,-0.277,-0.425,0.186,1.219,-0.033,0.061,1.463,2.717,8.046,0.653,8.436,8.487,0.296
