time,acc_x,acc_y,acc_z,vel_x,vel_y,vel_z,pos_x,pos_y,pos_z,rad_vel_x,rad_vel_y,rad_vel_z,rad_gyro_x,rad_gyro_y,rad_gyro_z,rad_mag_x,rad_mag_y,rad_mag_z
0.081,0.000,0.000,0.000,0.000,0.000,0.000,0.000,0.000,0.000,0.000,0.000,0.000,0.000,0.000,0.000,0.000,0.000,0.000,0.000,0.000,0.000,0.000,0.000,0.000
0.308,0.000,0.000,0.000,0.000,0.000,0.000,0.000,0.000,0.000,0.125,-0.033,0.099,0.000,0.000,0.000,0.000,0.000,0.000,0.000,0.000,0.000,0.000,0.000,0.000
0.374,0.000,0.000,0.000,0.000,0.000,0.000,0.000,0.000,0.000,0.125,-0.033,0.099,0.000,0.000,0.000,0.000,0.000,0.000,0.000,0.000,0.000,0.000,0.000,0.000
0.427,0.000,0.000,0.000,0.000,0.000,0.000,0.000,0.000,0.000,0.125,-0.033,0.099,0.000,0.000,0.000,0.000,0.000,0.000,0.500,0.000,0.500,0.000,0.500,0.000
0.480,0.000,0.000,0.000,0.000,0.000,0.000,0.000,0.000,0.000,-0.175,0.189,0.340,0.000,0.000,0.000,0.000,0.000,0.000,0.500,0.000,0.500,0.000,0.500,0.000
0.528,0.000,0.000,0.000,0.000,0.000,0.000,0.000,0.000,0.000,-0.217,-0.143,0.199,0.000,0.000,0.000,0.000,0.000,0.000,0.500,0.000,0.500,0.000,0.500,0.000
0.569,0.000,0.000,0.000,0.000,0.000,0.000,0.000,0.000,0.000,-0.308,-0.314,0.156,0.000,0.000,0.000,0.000,0.000,0.000,0.500,0.000,0.500,0.000,0.500,0.000
0.612,0.000,0.000,0.000,0.000,0.000,0.000,0.000,0.000,0.000,-0.236,-0.338,-0.015,0.000,0.000,0.000,0.000,0.000,0.000,0.500,0.000,0.500,0.000,0.500,0.000
0.653,0.000,0.000,0.000,0.000,0.000,0.000,0.000,0.000,0.000,-0.043,-0.183,-0.011,0.000,0.000,0.000,0.000,0.000,0.000,0.500,0.000,0.500,0.000,0.500,0.000
0.687,0.000,0.000,0.000,0.000,0.000,0.000,0.000,0.000,0.000,-0.062,-0.221,0.040,0.000,0.000,0.000,0.000,0.000,0.000,0.500,0.000,0.500,0.000,0.500,0.000
0.727,0.000,0.000,0.000,0.000,0.000,0.000,0.000,0.000,0.000,-0.033,-0.193,0.039,0.000,0.000,0.000,0.000,0.000,0.000,0.500,0.000,0.500,0.000,0.500,0.000
0.761,0.000,0.000,0.000,0.000,0.000,0.000,0.000,0.000,0.000,0.015,-0.191,0.016,0.000,0.000,0.000,0.000,0.000,0.000,0.500,0.000,0.500,0.000,0.500,0.000
0.794,0.000,0.000,0.000,0.000,0.000,0.000,0.000,0.000,0.000,0.032,-0.272,-0.056,0.000,0.000,0.000,0.000,0.000,0.000,0.500,0.000,0.500,0.000,0.500,0.000
0.825,0.000,0.000,0.000,0.000,0.000,0.000,0.000,0.000,0.000,0.013,-0.177,-0.039,0.000,0.000,0.000,0.000,0.000,0.000,0.500,0.000,0.500,0.000,0.500,0.000
0.857,0.000,0.000,0.000,0.000,0.000,0.000,0.000,0.000,0.000,-0.043,-0.161,-0.011,0.000,0.000,0.000,0.000,0.000,0.000,0.500,0.000,0.500,0.000,0.500,0.000
0.886,0.000,0.000,0.000,0.000,0.000,0.000,0.000,0.000,0.000,-0.082,-0.132,-0.097,0.000,0.000,0.000,0.000,0.000,0.000,1.000,0.000,1.000,0.000,1.000,0.000
0.914,0.000,0.000,0.000,0.000,0.000,0.000,0.000,0.000,0.000,-0.055,-0.051,-0.275,0.000,0.000,0.000,0.000,0.000,0.000,1.000,0.000,1.000,0.000,1.000,0.000
0.942,0.000,0.000,0.000,0.000,0.000,0.000,0.000,0.000,0.000,-0.222,0.148,-0.264,0.000,0.000,0.000,0.000,0.000,0.000,1.000,0.000,1.000,0.000,1.000,0.000
0.970,0.000,0.000,0.000,0.000,0.000,0.000,0.000,0.000,0.000,-0.297,0.160,-0.231,0.000,0.000,0.000,0.000,0.000,0.000,1.000,0.000,1.000,0.000,1.000,0.000
0.999,0.000,0.000,0.000,0.000,0.000,0.000,0.000,0.000,0.000,-0.467,0.022,-0.268,0.000,0.000,0.000,0.000,0.000,0.000,1.000,0.000,1.000,0.000,1.000,0.000
1.025,0.000,0.000,0.000,0.000,0.000,0.000,0.000,0.000,0.000,-0.095,-0.086,-0.204,0.000,0.000,0.000,0.000,0.000,0.000,1.000,0.000,1.000,0.000,1.000,0.000
1.051,0.000,0.000,0.000,0.000,0.000,0.000,0.000,0.000,0.000,0.126,0.004,-0.182,0.000,0.000,0.000,0.000,0.000,0.000,1.000,0.000,1.000,0.000,1.000,0.000
1.078,0.000,0.000,0.000,0.000,0.000,0.000,0.000,0.000,0.000,0.094,0.093,-0.144,0.000,0.000,0.000,0.000,0.000,0.000,1.000,0.000,1.000,0.000,1.000,0.000
1.103,0.000,0.000,0.000,0.000,0.000,0.000,0.000,0.000,0.000,-0.202,0.134,-0.270,0.000,0.000,0.000,0.000,0.000,0.000,1.000,0.000,1.000,0.000,1.000,0.000
1.128,0.000,0.000,0.000,0.000,0.000,0.000,0.000,0.000,0.000,-0.275,0.072,-0.299,0.000,0.000,0.000,0.000,0.000,0.000,1.000,0.000,1.000,0.000,1.000,0.000
1.154,0.000,0.000,0.000,0.000,0.000,0.000,0.000,0.000,0.000,-0.193,-0.009,-0.225,0.000,0.000,0.000,0.000,0.000,0.000,1.000,0.000,1.000,0.000,1.000,0.000
1.179,0.000,0.000,0.000,0.000,0.000,0.000,0.000,0.000,0.000,-0.053,0.002,-0.191,0.000,0.000,0.000,0.000,0.000,0.000,1.000,0.000,1.000,0.000,1.000,0.000
1.204,0.000,0.000,0.000,0.000,0.000,0.000,0.000,0.000,0.000,-0.043,0.111,-0.409,0.000,0.000,0.000,0.000,0.000,0.000,1.000,0.000,1.000,0.000,1.000,0.000
1.229,0.000,0.000,0.000,0.000,0.000,0.000,0.000,0.000,0.000,-0.191,0.138,-0.481,0.000,0.000,0.000,0.000,0.000,0.000,1.000,0.000,1.000,0.000,1.000,0.000
1.254,0.000,0.000,0.000,0.000,0.000,0.000,0.000,0.000,0.000,-0.365,0.068,-0.457,0.000,0.000,0.000,0.000,0.000,0.000,1.000,0.000,1.000,0.000,1.000,0.000
1.280,0.000,0.000,0.000,0.000,0.000,0.000,0.000,0.000,0.000,-0.519,-0.090,-0.376,0.000,0.000,0.000,0.000,0.000,0.000,1.000,0.000,1.000,0.000,1.000,0.000
1.306,0.000,0.000,0.000,0.000,0.000,0.000,0.000,0.000,0.000,-0.134,-0.090,0.130,0.000,0.000,0.000,0.000,0.000,0.000,1.000,0.000,1.000,0.000,1.000,0.000
1.331,0.000,0.000,0.000,0.000,0.000,0.000,0.000,0.000,0.000,0.110,0.040,0.123,0.000,0.000,0.000,0.000,0.000,0.000,1.000,0.000,1.000,0.000,1.000,0.000
1.355,0.000,0.000,0.000,0.000,0.000,0.000,0.000,0.000,0.000,0.062,-0.035,0.094,0.000,0.000,0.000,0.000,0.000,0.000,1.000,0.000,1.000,0.000,1.000,0.000
1.380,0.000,0.000,0.000,0.000,0.000,0.000,0.000,0.000,0.000,-0.072,-0.214,-0.017,0.000,0.000,0.000,0.000,0.000,0.000,1.500,0.000,1.500,0.000,1.500,0.000
1.405,0.000,0.000,0.000,0.000,0.000,0.000,0.000,0.000,0.000,-0.186,-0.219,-0.076,0.000,0.000,0.000,0.000,0.000,0.000,1.500,0.000,1.500,0.000,1.500,0.000
1.430,0.000,0.000,0.000,0.000,0.000,0.000,0.000,0.000,0.000,-0.033,-0.095,-0.070,0.000,0.000,0.000,0.000,0.000,0.000,1.500,0.000,1.500,0.000,1.500,0.000
1.456,0.000,0.000,0.000,0.000,0.000,0.000,0.000,0.000,0.000,0.149,0.126,0.015,0.000,0.000,0.000,0.000,0.000,0.000,1.500,0.000,1.500,0.000,1.500,0.000
1.482,0.000,0.000,0.000,0.000,0.000,0.000,0.000,0.000,0.000,0.241,0.139,-0.054,0.000,0.000,0.000,0.000,0.000,0.000,1.500,0.000,1.500,0.000,1.500,0.000
1.508,0.000,0.000,0.000,0.000,0.000,0.000,0.000,0.000,0.000,0.200,0.105,-0.121,0.000,0.000,0.000,0.000,0.000,0.000,1.500,0.000,1.500,0.000,1.500,0.000
1.534,0.000,0.000,0.000,0.000,0.000,0.000,0.000,0.000,0.000,0.192,0.125,-0.143,0.000,0.000,0.000,0.000,0.000,0.000,1.500,0.000,1.500,0.000,1.500,0.000
1.565,0.000,0.000,0.000,0.000,0.000,0.000,0.000,0.000,0.000,0.282,0.180,-0.064,0.000,0.000,0.000,0.000,0.000,0.000,1.500,0.000,1.500,0.000,1.500,0.000
1.592,0.000,0.000,0.000,0.000,0.000,0.000,0.000,0.000,0.000,0.326,0.221,-0.040,0.000,0.000,0.000,0.000,0.000,0.000,1.500,0.000,1.500,0.000,1.500,0.000
1.621,0.000,0.000,0.000,0.000,0.000,0.000,0.000,0.000,0.000,0.164,-0.183,-0.010,0.000,0.000,0.000,0.000,0.000,0.000,1.500,0.000,1.500,0.000,1.500,0.000
1.647,0.000,0.000,0.000,0.000,0.000,0.000,0.000,0.000,0.000,-0.112,-0.403,-0.015,0.000,0.000,0.000,0.000,0.000,0.000,1.500,0.000,1.500,0.000,1.500,0.000
1.675,0.000,0.000,0.000,0.000,0.000,0.000,0.000,0.000,0.000,-0.099,-0.172,0.037,0.000,0.000,0.000,0.000,0.000,0.000,1.500,0.000,1.500,0.000,1.500,0.000
1.703,0.000,0.000,0.000,0.000,0.000,0.000,0.000,0.000,0.000,0.055,-0.023,0.066,0.000,0.000,0.000,0.000,0.000,0.000,1.500,0.000,1.500,0.000,1.500,0.000
1.731,0.000,0.000,0.000,0.000,0.000,0.000,0.000,0.000,0.000,-0.006,-0.121,0.029,0.000,0.000,0.000,0.000,0.000,0.000,1.500,0.000,1.500,0.000,1.500,0.000
1.757,0.000,0.000,0.000,0.000,0.000,0.000,0.000,0.000,0.000,-0.015,-0.038,0.016,0.000,0.000,0.000,0.000,0.000,0.000,1.500,0.000,1.500,0.000,1.500,0.000
1.785,0.000,0.000,0.000,0.000,0.000,0.000,0.000,0.000,0.000,0.042,0.066,0.094,0.000,0.000,0.000,0.000,0.000,0.000,1.500,0.000,1.500,0.000,1.500,0.000
1.812,0.000,0.000,0.000,0.000,0.000,0.000,0.000,0.000,0.000,0.062,0.094,0.043,0.000,0.000,0.000,0.000,0.000,0.000,1.500,0.000,1.500,0.000,1.500,0.000
1.840,0.000,0.000,0.000,0.000,0.000,0.000,0.000,0.000,0.000,0.099,0.165,-0.032,0.000,0.000,0.000,0.000,0.000,0.000,1.500,0.000,1.500,0.000,1.500,0.000
1.866,0.000,0.000,0.000,0.000,0.000,0.000,0.000,0.000,0.000,0.178,0.264,-0.089,0.000,0.000,0.000,0.000,0.000,0.000,1.500,0.000,1.500,0.000,1.500,0.000
1.892,0.000,0.000,0.000,0.000,0.000,0.000,0.000,0.000,0.000,0.225,0.216,-0.128,0.000,0.000,0.000,0.000,0.000,0.000,2.000,0.000,2.000,0.000,2.000,0.000
1.919,0.000,0.000,0.000,0.000,0.000,0.000,0.000,0.000,0.000,0.166,0.039,-0.084,0.000,0.000,0.000,0.000,0.000,0.000,2.000,0.000,2.000,0.000,2.000,0.000
1.948,0.000,0.000,0.000,0.000,0.000,0.000,0.000,0.000,0.000,-0.032,-0.222,0.051,0.000,0.000,0.000,0.000,0.000,0.000,2.000,0.000,2.000,0.000,2.000,0.000
1.974,0.000,0.000,0.000,0.000,0.000,0.000,0.000,0.000,0.000,-0.054,-0.048,0.001,0.000,0.000,0.000,0.000,0.000,0.000,2.000,0.000,2.000,0.000,2.000,0.000
2.000,0.000,0.000,0.000,0.000,0.000,0.000,0.000,0.000,0.000,-0.055,0.104,0.021,0.000,0.000,0.000,0.000,0.000,0.000,2.000,0.000,2.000,0.000,2.000,0.000
2.026,0.000,0.000,0.000,0.004,0.000,0.001,0.000,0.000,0.000,-0.079,0.252,0.078,-0.000,0.001,0.000,-0.003,-0.027,-0.041,2.000,0.000,2.000,0.000,2.000,0.000
2.058,0.000,0.000,0.000,0.033,0.004,0.008,0.001,0.000,0.000,-0.123,0.331,-0.043,-0.001,0.002,0.001,0.006,-0.014,-0.024,2.000,0.000,2.000,0.000,2.000,0.000
2.086,0.000,0.000,0.000,0.057,0.007,0.017,0.002,0.000,0.000,0.038,0.348,-0.122,-0.002,0.006,0.001,0.017,0.021,0.026,2.000,0.000,2.000,0.000,2.000,0.000
2.111,0.000,0.000,0.000,0.119,0.020,0.039,0.005,0.001,0.002,0.215,0.238,-0.079,-0.002,0.008,0.000,0.011,0.002,-0.015,2.000,0.000,2.000,0.000,2.000,0.000
2.137,0.000,0.000,0.000,0.158,0.029,0.051,0.008,0.001,0.002,0.352,0.139,-0.040,-0.002,0.011,-0.000,0.001,0.007,-0.032,2.000,0.000,2.000,0.000,2.000,0.000
2.163,0.000,0.000,0.000,0.200,0.040,0.062,0.011,0.002,0.004,0.276,0.115,-0.006,0.001,0.017,-0.001,0.003,0.035,-0.017,2.000,0.000,2.000,0.000,2.000,0.000
2.189,0.000,0.000,0.000,0.251,0.054,0.075,0.016,0.003,0.005,0.130,0.077,-0.004,0.003,0.019,-0.001,-0.010,0.010,-0.040,2.000,0.000,2.000,0.000,2.000,0.000
2.215,0.000,0.000,0.000,0.349,0.079,0.098,0.028,0.005,0.008,0.004,0.004,0.018,0.005,0.022,-0.002,-0.009,0.007,-0.033,2.000,0.000,2.000,0.000,2.000,0.000
2.240,0.000,0.000,0.000,0.405,0.094,0.113,0.035,0.007,0.010,0.043,-0.077,0.004,0.006,0.024,-0.002,-0.000,0.031,0.004,2.000,0.000,2.000,0.000,2.000,0.000
2.266,0.000,0.000,0.000,0.476,0.112,0.130,0.046,0.010,0.013,0.111,0.021,-0.024,0.010,0.027,-0.002,-0.009,0.001,0.011,2.000,0.000,2.000,0.000,2.000,0.000
2.292,0.000,0.000,0.000,0.588,0.141,0.158,0.065,0.014,0.019,0.081,0.079,-0.012,0.011,0.029,-0.003,-0.010,-0.001,0.019,2.000,0.000,2.000,0.000,2.000,0.000
2.323,0.000,0.000,0.000,0.653,0.157,0.174,0.077,0.017,0.022,0.077,-0.029,-0.039,0.015,0.031,-0.003,-0.003,0.022,0.085,2.000,0.000,2.000,0.000,2.000,0.000
2.355,0.000,0.000,0.000,0.785,0.192,0.208,0.106,0.024,0.030,0.108,-0.020,-0.033,0.016,0.033,-0.004,-0.004,0.016,0.058,2.000,0.000,2.000,0.000,2.000,0.000
2.387,0.000,0.000,0.000,0.856,0.211,0.225,0.123,0.028,0.034,0.143,0.005,0.001,0.020,0.035,-0.005,-0.015,-0.010,-0.025,2.000,0.000,2.000,0.000,2.000,0.000
2.420,0.000,0.000,0.000,0.990,0.247,0.256,0.159,0.037,0.043,0.137,0.022,0.040,0.022,0.035,-0.005,-0.019,-0.015,-0.049,2.000,0.000,2.000,0.000,2.000,0.000
2.450,0.000,0.000,0.000,1.061,0.266,0.269,0.180,0.042,0.049,0.029,0.035,0.037,0.026,0.037,-0.005,-0.012,0.008,0.007,2.000,0.000,2.000,0.000,2.000,0.000
2.482,0.000,0.000,0.000,1.208,0.306,0.296,0.226,0.054,0.060,-0.083,0.026,0.015,0.029,0.039,-0.005,-0.010,0.002,-0.005,2.000,0.000,2.000,0.000,2.000,0.000
2.515,0.000,0.000,0.000,1.351,0.345,0.321,0.276,0.067,0.072,-0.076,0.056,0.016,0.030,0.039,-0.005,-0.005,-0.001,0.012,2.000,0.000,2.000,0.000,2.000,0.000
2.547,0.000,0.000,0.000,1.428,0.367,0.335,0.306,0.074,0.079,-0.056,0.034,0.027,0.032,0.041,-0.005,-0.012,-0.026,-0.026,2.000,0.000,2.000,0.000,2.000,0.000
2.574,0.000,0.000,0.000,1.571,0.406,0.361,0.364,0.089,0.093,-0.083,0.007,0.038,0.032,0.042,-0.005,-0.007,-0.030,-0.025,2.000,0.000,2.000,0.000,2.000,0.000
2.601,0.000,0.000,0.000,1.645,0.427,0.375,0.396,0.098,0.100,-0.093,0.000,0.031,0.032,0.043,-0.004,0.005,-0.009,-0.014,2.000,0.000,2.000,0.000,2.000,0.000
2.625,0.000,0.000,0.000,1.720,0.448,0.388,0.430,0.107,0.108,-0.048,-0.044,-0.021,0.032,0.044,-0.004,-0.003,-0.038,-0.063,2.000,0.000,2.000,0.000,2.000,0.000
2.651,0.000,0.000,0.000,1.871,0.492,0.415,0.502,0.125,0.124,-0.042,0.010,-0.061,0.032,0.044,-0.004,0.010,-0.018,-0.030,2.000,0.000,2.000,0.000,2.000,0.000
2.676,0.000,0.000,0.000,1.947,0.514,0.428,0.540,0.135,0.132,-0.038,0.059,-0.105,0.032,0.045,-0.004,0.014,-0.024,-0.017,2.000,0.000,2.000,0.000,2.000,0.000
2.701,0.000,0.000,0.000,2.023,0.537,0.442,0.580,0.146,0.141,-0.027,0.095,-0.153,0.032,0.045,-0.004,0.007,-0.046,-0.031,2.000,0.000,2.000,0.000,2.000,0.000
2.727,0.000,0.000,0.000,2.097,0.561,0.455,0.621,0.157,0.150,-0.055,0.068,-0.144,0.031,0.046,-0.006,0.019,-0.025,0.028,2.000,0.000,2.000,0.000,2.000,0.000
2.753,0.000,0.000,0.000,2.246,0.609,0.483,0.708,0.180,0.169,-0.055,0.022,-0.142,0.031,0.047,-0.007,0.023,-0.030,0.023,2.000,0.000,2.000,0.000,2.000,0.000
2.779,0.000,0.000,0.000,2.319,0.634,0.496,0.753,0.193,0.178,-0.038,-0.010,-0.139,0.030,0.048,-0.008,0.015,-0.054,-0.031,2.000,0.000,2.000,0.000,2.000,0.000
2.806,0.000,0.000,0.000,2.392,0.659,0.509,0.800,0.206,0.189,-0.032,0.032,-0.100,0.029,0.049,-0.011,0.027,-0.036,-0.018,2.000,0.000,2.000,0.000,2.000,0.000
2.833,0.000,0.000,0.000,2.539,0.712,0.537,0.901,0.234,0.210,-0.042,0.023,-0.098,0.029,0.050,-0.012,0.031,-0.041,-0.036,2.000,0.000,2.000,0.000,2.000,0.000
2.866,0.000,0.000,0.000,2.606,0.736,0.549,0.950,0.248,0.220,-0.026,0.026,-0.108,0.028,0.051,-0.014,0.022,-0.062,-0.062,2.000,0.000,2.000,0.000,2.000,0.000
2.895,0.000,0.000,0.000,2.745,0.788,0.572,1.057,0.278,0.243,-0.055,0.189,-0.148,0.027,0.052,-0.017,0.027,-0.062,-0.048,2.000,0.000,2.000,0.000,2.000,0.000
2.922,0.000,0.000,0.000,2.813,0.815,0.584,1.113,0.294,0.254,0.045,0.321,-0.078,0.026,0.055,-0.021,0.039,-0.040,-0.028,2.000,0.000,2.000,0.000,2.000,0.000
2.950,0.000,0.000,0.000,2.884,0.842,0.597,1.173,0.311,0.267,0.108,0.247,-0.057,0.026,0.057,-0.023,0.029,-0.054,-0.070,2.000,0.000,2.000,0.000,2.000,0.000
2.986,0.000,0.000,0.000,3.015,0.895,0.623,1.291,0.346,0.291,-0.010,0.001,-0.054,0.025,0.061,-0.026,0.026,-0.051,-0.090,2.000,0.000,2.000,0.000,2.000,0.000
3.015,0.000,0.000,0.000,3.140,0.948,0.647,1.411,0.382,0.316,-0.115,-0.070,0.013,0.025,0.063,-0.028,0.029,-0.059,-0.075,2.000,0.000,2.000,0.000,2.000,0.000
3.042,0.000,0.000,0.000,3.204,0.976,0.658,1.474,0.401,0.329,-0.128,-0.073,-0.001,0.024,0.066,-0.030,0.042,-0.046,-0.064,2.000,0.000,2.000,0.000,2.000,0.000
3.071,0.000,0.000,0.000,3.331,1.033,0.682,1.605,0.442,0.356,-0.072,-0.068,-0.043,0.024,0.067,-0.031,0.034,-0.070,-0.128,2.000,0.000,2.000,0.000,2.000,0.000
3.103,0.000,0.000,0.000,3.394,1.061,0.693,1.672,0.462,0.369,-0.057,-0.053,0.022,0.022,0.068,-0.033,0.036,-0.079,-0.114,2.000,0.000,2.000,0.000,2.000,0.000
3.136,0.000,0.000,0.000,3.519,1.119,0.716,1.810,0.506,0.398,-0.054,-0.060,0.054,0.021,0.068,-0.034,0.039,-0.090,-0.113,2.000,0.000,2.000,0.000,2.000,0.000
3.167,0.000,0.000,0.000,3.582,1.148,0.727,1.881,0.529,0.412,-0.071,-0.032,0.023,0.019,0.069,-0.035,0.050,-0.078,-0.049,2.000,0.000,2.000,0.000,2.000,0.000
3.198,0.000,0.000,0.000,3.708,1.203,0.751,2.027,0.576,0.442,-0.056,0.016,-0.023,0.018,0.069,-0.036,0.055,-0.089,-0.076,2.000,0.000,2.000,0.000,2.000,0.000
3.229,0.000,0.000,0.000,3.776,1.233,0.764,2.110,0.603,0.458,0.037,-0.005,-0.153,0.016,0.069,-0.037,0.046,-0.108,-0.092,2.000,0.000,2.000,0.000,2.000,0.000
3.261,0.000,0.000,0.000,3.892,1.284,0.786,2.255,0.650,0.488,0.039,-0.053,-0.162,0.016,0.069,-0.038,0.045,-0.115,-0.130,2.000,0.000,2.000,0.000,2.000,0.000
3.291,0.000,0.000,0.000,4.010,1.341,0.805,2.413,0.703,0.520,0.010,-0.205,-0.149,0.015,0.069,-0.041,0.043,-0.128,-0.135,2.000,0.000,2.000,0.000,2.000,0.000
3.323,0.000,0.000,0.000,4.067,1.371,0.814,2.494,0.730,0.536,-0.114,-0.029,-0.064,0.014,0.067,-0.044,0.055,-0.120,-0.133,2.000,0.000,2.000,0.000,2.000,0.000
3.356,0.000,0.000,0.000,4.179,1.430,0.832,2.659,0.786,0.569,-0.075,0.120,-0.010,0.013,0.066,-0.045,0.059,-0.124,-0.154,2.000,0.000,2.000,0.000,2.000,0.000
3.387,0.000,0.000,0.000,4.236,1.461,0.843,2.747,0.816,0.586,0.062,0.018,-0.018,0.012,0.065,-0.048,0.048,-0.139,-0.206,2.000,0.000,2.000,0.000,2.000,0.000
3.419,0.000,0.000,0.000,4.340,1.519,0.861,2.915,0.874,0.619,0.060,-0.050,-0.029,0.012,0.065,-0.049,0.045,-0.145,-0.233,2.000,0.000,2.000,0.000,2.000,0.000
3.451,0.000,0.000,0.000,4.400,1.554,0.870,3.015,0.910,0.639,-0.011,-0.033,-0.002,0.011,0.064,-0.051,0.056,-0.136,-0.197,2.000,0.000,2.000,0.000,2.000,0.000
3.479,0.000,0.000,0.000,4.496,1.610,0.884,3.180,0.968,0.672,-0.011,-0.026,-0.016,0.011,0.064,-0.052,0.056,-0.144,-0.203,2.000,0.000,2.000,0.000,2.000,0.000
3.507,0.000,0.000,0.000,4.549,1.642,0.891,3.275,1.002,0.690,-0.012,-0.017,0.007,0.011,0.063,-0.054,0.043,-0.161,-0.206,2.000,0.000,2.000,0.000,2.000,0.000
3.541,0.000,0.000,0.000,4.645,1.701,0.902,3.454,1.068,0.725,-0.040,0.018,0.037,0.010,0.062,-0.054,0.043,-0.168,-0.208,2.000,0.000,2.000,0.000,2.000,0.000
3.567,0.000,0.000,0.000,4.693,1.731,0.907,3.547,1.102,0.743,-0.048,-0.033,0.017,0.010,0.061,-0.055,0.054,-0.159,-0.177,2.000,0.000,2.000,0.000,2.000,0.000
3.594,0.000,0.000,0.000,4.789,1.792,0.915,3.737,1.172,0.780,-0.049,-0.027,0.024,0.009,0.061,-0.056,0.053,-0.167,-0.188,2.000,0.000,2.000,0.000,2.000,0.000
3.621,0.000,0.000,0.000,4.840,1.825,0.918,3.843,1.212,0.800,-0.068,-0.004,0.034,0.009,0.061,-0.056,0.043,-0.183,-0.237,2.000,0.000,2.000,0.000,2.000,0.000
3.647,0.000,0.000,0.000,4.882,1.852,0.921,3.930,1.245,0.817,-0.176,0.095,0.028,0.007,0.060,-0.056,0.055,-0.173,-0.218,2.000,0.000,2.000,0.000,2.000,0.000
3.672,0.000,0.000,0.000,4.973,1.912,0.928,4.128,1.321,0.854,-0.158,-0.002,-0.012,0.006,0.060,-0.056,0.061,-0.178,-0.229,2.000,0.000,2.000,0.000,2.000,0.000
3.697,0.000,0.000,0.000,5.018,1.942,0.933,4.227,1.359,0.872,-0.131,-0.067,-0.024,0.005,0.060,-0.056,0.052,-0.194,-0.260,2.000,0.000,2.000,0.000,2.000,0.000
3.722,0.000,0.000,0.000,5.065,1.973,0.938,4.333,1.400,0.892,-0.159,-0.115,-0.037,0.002,0.060,-0.057,0.064,-0.188,-0.228,2.000,0.000,2.000,0.000,2.000,0.000
3.758,0.000,0.000,0.000,5.149,2.030,0.947,4.532,1.478,0.929,-0.176,-0.088,-0.048,0.000,0.059,-0.057,0.070,-0.198,-0.231,2.000,0.000,2.000,0.000,2.000,0.000
3.796,0.000,0.000,0.000,5.232,2.088,0.959,4.740,1.561,0.967,-0.013,0.068,-0.027,-0.004,0.058,-0.057,0.072,-0.201,-0.236,2.000,0.000,2.000,0.000,2.000,0.000
3.826,0.000,0.000,0.000,5.270,2.116,0.964,4.845,1.603,0.986,0.001,-0.037,-0.006,-0.007,0.057,-0.058,0.059,-0.210,-0.227,2.000,0.000,2.000,0.000,2.000,0.000
3.859,0.000,0.000,0.000,5.345,2.174,0.972,5.057,1.689,1.025,-0.160,-0.084,0.076,-0.008,0.057,-0.058,0.060,-0.219,-0.228,2.000,0.000,2.000,0.000,2.000,0.000
3.891,0.000,0.000,0.000,5.419,2.229,0.981,5.273,1.777,1.064,-0.297,-0.173,0.111,-0.012,0.056,-0.058,0.073,-0.216,-0.187,2.000,0.000,2.000,0.000,2.000,0.000
3.924,0.000,0.000,0.000,5.455,2.256,0.985,5.381,1.821,1.083,-0.216,-0.106,0.087,-0.017,0.053,-0.057,0.081,-0.229,-0.202,2.000,0.000,2.000,0.000,2.000,0.000
3.955,0.000,0.000,0.000,5.526,2.308,0.993,5.601,1.913,1.123,-0.161,-0.029,0.089,-0.019,0.052,-0.057,0.086,-0.238,-0.216,2.000,0.000,2.000,0.000,2.000,0.000
3.984,0.000,0.000,0.000,5.561,2.333,0.998,5.712,1.959,1.143,-0.131,0.043,0.049,-0.025,0.050,-0.055,0.080,-0.250,-0.217,2.000,0.000,2.000,0.000,2.000,0.000
4.014,0.000,0.000,0.000,5.632,2.383,1.006,5.936,2.053,1.183,-0.133,0.011,-0.004,-0.028,0.049,-0.054,0.082,-0.257,-0.227,2.000,0.000,2.000,0.000,2.000,0.000
4.042,0.000,0.000,0.000,5.668,2.408,1.010,6.054,2.104,1.204,-0.199,-0.022,-0.050,-0.034,0.048,-0.053,0.092,-0.253,-0.233,2.000,0.000,2.000,0.000,2.000,0.000
4.069,0.000,0.000,0.000,5.703,2.432,1.014,6.168,2.152,1.224,-0.257,0.026,-0.065,-0.037,0.047,-0.053,0.087,-0.263,-0.274,2.000,0.000,2.000,0.000,2.000,0.000
4.098,0.000,0.000,0.000,5.768,2.478,1.022,6.392,2.248,1.264,-0.241,-0.123,0.017,-0.040,0.047,-0.052,0.097,-0.271,-0.285,2.000,0.000,2.000,0.000,2.000,0.000
4.126,0.000,0.000,0.000,5.800,2.501,1.026,6.508,2.298,1.285,-0.075,-0.033,-0.009,-0.046,0.045,-0.052,0.108,-0.268,-0.273,2.000,0.000,2.000,0.000,2.000,0.000
4.155,0.000,0.000,0.000,5.864,2.546,1.036,6.741,2.399,1.326,0.100,0.031,0.005,-0.049,0.044,-0.052,0.106,-0.274,-0.264,2.000,0.000,2.000,0.000,2.000,0.000
4.182,0.000,0.000,0.000,5.895,2.568,1.040,6.858,2.450,1.347,0.195,0.056,-0.046,-0.054,0.043,-0.051,0.093,-0.283,-0.280,2.000,0.000,2.000,0.000,2.000,0.000
4.211,0.000,0.000,0.000,5.957,2.611,1.044,7.095,2.553,1.388,0.055,-0.006,-0.106,-0.055,0.043,-0.051,0.096,-0.278,-0.279,2.000,0.000,2.000,0.000,2.000,0.000
4.240,0.000,0.000,0.000,5.987,2.633,1.046,7.215,2.606,1.409,-0.092,-0.044,-0.115,-0.056,0.042,-0.051,0.096,-0.285,-0.275,2.000,0.000,2.000,0.000,2.000,0.000
4.267,0.000,0.000,0.000,6.016,2.654,1.047,7.335,2.659,1.430,-0.068,-0.021,-0.121,-0.059,0.042,-0.052,0.091,-0.293,-0.297,2.000,0.000,2.000,0.000,2.000,0.000
4.295,0.000,0.000,0.000,6.072,2.696,1.050,7.577,2.766,1.472,-0.013,0.043,-0.092,-0.060,0.041,-0.053,0.091,-0.296,-0.303,2.000,0.000,2.000,0.000,2.000,0.000
4.324,0.000,0.000,0.000,6.098,2.717,1.051,7.698,2.820,1.493,-0.013,0.013,-0.078,-0.062,0.041,-0.055,0.096,-0.292,-0.288,2.000,0.000,2.000,0.000,2.000,0.000
4.351,0.000,0.000,0.000,6.148,2.760,1.054,7.943,2.929,1.535,-0.066,-0.004,-0.077,-0.063,0.041,-0.056,0.087,-0.299,-0.321,2.000,0.000,2.000,0.000,2.000,0.000
4.378,0.000,0.000,0.000,6.173,2.783,1.056,8.073,2.988,1.557,-0.090,0.000,-0.057,-0.064,0.040,-0.057,0.089,-0.303,-0.303,2.000,0.000,2.000,0.000,2.000,0.000
4.409,0.000,0.000,0.000,6.196,2.804,1.059,8.196,3.043,1.578,-0.027,-0.005,0.006,-0.066,0.040,-0.059,0.095,-0.300,-0.303,2.000,0.000,2.000,0.000,2.000,0.000
4.437,0.000,0.000,0.000,6.243,2.846,1.066,8.445,3.156,1.621,0.026,-0.015,-0.023,-0.067,0.040,-0.060,0.093,-0.306,-0.304,2.000,0.000,2.000,0.000,2.000,0.000
4.466,0.000,0.000,0.000,6.267,2.868,1.069,8.577,3.216,1.643,0.077,-0.051,-0.026,-0.069,0.040,-0.061,0.084,-0.314,-0.303,2.000,0.000,2.000,0.000,2.000,0.000
4.495,0.000,0.000,0.000,6.310,2.906,1.074,8.815,3.326,1.684,0.072,-0.037,-0.022,-0.069,0.039,-0.062,0.078,-0.322,-0.317,2.000,0.000,2.000,0.000,2.000,0.000
4.524,0.000,0.000,0.000,6.332,2.926,1.077,8.942,3.384,1.706,0.079,-0.050,-0.013,-0.069,0.039,-0.063,0.081,-0.320,-0.312,2.000,0.000,2.000,0.000,2.000,0.000
4.553,0.000,0.000,0.000,6.376,2.964,1.079,9.196,3.502,1.749,0.049,-0.064,-0.022,-0.069,0.038,-0.064,0.076,-0.327,-0.301,2.000,0.000,2.000,0.000,2.000,0.000
4.583,0.000,0.000,0.000,6.398,2.983,1.079,9.324,3.562,1.770,0.054,-0.007,-0.023,-0.069,0.037,-0.065,0.068,-0.335,-0.308,2.000,0.000,2.000,0.000,2.000,0.000
4.611,0.000,0.000,0.000,6.440,3.019,1.078,9.581,3.682,1.813,0.066,0.032,-0.027,-0.069,0.037,-0.066,0.071,-0.333,-0.315,2.000,0.000,2.000,0.000,2.000,0.000
4.638,0.000,0.000,0.000,6.461,3.037,1.078,9.710,3.742,1.835,0.039,0.016,-0.028,-0.068,0.037,-0.066,0.067,-0.336,-0.340,2.000,0.000,2.000,0.000,2.000,0.000
4.666,0.000,0.000,0.000,6.480,3.054,1.077,9.839,3.803,1.857,-0.077,-0.045,-0.022,-0.068,0.036,-0.068,0.061,-0.342,-0.373,2.000,0.000,2.000,0.000,2.000,0.000
4.696,0.000,0.000,0.000,6.519,3.089,1.076,10.099,3.926,1.900,-0.073,0.007,-0.050,-0.067,0.035,-0.068,0.062,-0.347,-0.367,2.000,0.000,2.000,0.000,2.000,0.000
4.724,0.000,0.000,0.000,6.538,3.106,1.076,10.230,3.988,1.921,0.004,-0.038,-0.088,-0.068,0.035,-0.069,0.067,-0.345,-0.338,2.000,0.000,2.000,0.000,2.000,0.000
4.752,0.000,0.000,0.000,6.574,3.140,1.075,10.492,4.113,1.964,-0.006,-0.032,-0.094,-0.068,0.034,-0.070,0.063,-0.350,-0.358,2.000,0.000,2.000,0.000,2.000,0.000
4.780,0.000,0.000,0.000,6.592,3.158,1.075,10.630,4.179,1.987,-0.011,-0.002,-0.066,-0.068,0.034,-0.071,0.058,-0.354,-0.368,2.000,0.000,2.000,0.000,2.000,0.000
4.808,0.000,0.000,0.000,6.608,3.173,1.074,10.755,4.239,2.007,-0.013,-0.002,-0.045,-0.068,0.034,-0.073,0.062,-0.352,-0.372,2.000,0.000,2.000,0.000,2.000,0.000
4.837,0.000,0.000,0.000,6.639,3.206,1.072,11.020,4.367,2.050,-0.023,-0.044,-0.060,-0.068,0.033,-0.074,0.060,-0.355,-0.386,2.000,0.000,2.000,0.000,2.000,0.000
4.864,0.000,0.000,0.000,6.654,3.222,1.070,11.153,4.431,2.071,-0.055,-0.055,-0.045,-0.068,0.033,-0.075,0.055,-0.360,-0.373,2.000,0.000,2.000,0.000,2.000,0.000
4.892,0.000,0.000,0.000,6.682,3.253,1.066,11.420,4.561,2.114,-0.105,-0.023,-0.015,-0.069,0.032,-0.077,0.057,-0.364,-0.385,2.000,0.000,2.000,0.000,2.000,0.000
4.919,0.000,0.000,0.000,6.696,3.268,1.063,11.554,4.626,2.135,-0.103,-0.044,-0.038,-0.069,0.032,-0.077,0.062,-0.363,-0.364,2.000,0.000,2.000,0.000,2.000,0.000
4.947,0.000,0.000,0.000,6.709,3.283,1.061,11.688,4.691,2.157,-0.114,-0.031,-0.092,-0.071,0.031,-0.079,0.058,-0.368,-0.360,2.000,0.000,2.000,0.000,2.000,0.000
4.975,0.000,0.000,0.000,6.734,3.313,1.056,11.957,4.823,2.199,-0.130,0.009,-0.092,-0.072,0.030,-0.080,0.059,-0.370,-0.380,2.000,0.000,2.000,0.000,2.000,0.000
5.002,0.000,0.000,0.000,6.745,3.328,1.054,12.092,4.890,2.220,-0.127,0.021,-0.059,-0.075,0.029,-0.082,0.065,-0.368,-0.374,2.000,0.000,2.000,0.000,2.000,0.000
5.031,0.000,0.000,0.000,6.757,3.343,1.053,12.233,4.960,2.242,-0.106,-0.004,-0.068,-0.076,0.029,-0.084,0.062,-0.371,-0.369,2.000,0.000,2.000,0.000,2.000,0.000
5.059,0.000,0.000,0.000,6.778,3.372,1.050,12.497,5.091,2.283,-0.094,-0.007,-0.070,-0.078,0.029,-0.085,0.062,-0.373,-0.402,2.000,0.000,2.000,0.000,2.000,0.000
5.087,0.000,0.000,0.000,6.788,3.387,1.050,12.640,5.162,2.305,-0.106,0.013,0.009,-0.081,0.028,-0.087,0.067,-0.372,-0.380,2.000,0.000,2.000,0.000,2.000,0.000
5.116,0.000,0.000,0.000,6.807,3.414,1.050,12.905,5.294,2.346,-0.094,-0.017,0.018,-0.082,0.028,-0.088,0.069,-0.374,-0.379,2.000,0.000,2.000,0.000,2.000,0.000
5.145,0.000,0.000,0.000,6.817,3.428,1.050,13.041,5.363,2.367,-0.032,-0.016,0.015,-0.086,0.028,-0.089,0.065,-0.377,-0.363,2.000,0.000,2.000,0.000,2.000,0.000
5.172,0.000,0.000,0.000,6.835,3.454,1.051,13.314,5.500,2.409,-0.026,0.009,0.023,-0.087,0.028,-0.090,0.064,-0.379,-0.364,2.000,0.000,2.000,0.000,2.000,0.000
5.201,0.000,0.000,0.000,6.844,3.467,1.052,13.458,5.573,2.431,-0.068,0.029,0.056,-0.089,0.027,-0.090,0.067,-0.378,-0.369,2.000,0.000,2.000,0.000,2.000,0.000
5.229,0.000,0.000,0.000,6.852,3.479,1.055,13.595,5.642,2.452,-0.111,0.022,0.076,-0.091,0.027,-0.091,0.067,-0.381,-0.390,2.000,0.000,2.000,0.000,2.000,0.000
5.257,0.000,0.000,0.000,6.870,3.500,1.062,13.862,5.778,2.494,-0.031,-0.007,0.022,-0.093,0.027,-0.090,0.067,-0.383,-0.410,2.000,0.000,2.000,0.000,2.000,0.000
5.285,0.000,0.000,0.000,6.878,3.511,1.066,14.000,5.849,2.515,0.153,0.001,-0.086,-0.095,0.027,-0.091,0.068,-0.382,-0.411,2.000,0.000,2.000,0.000,2.000,0.000
5.312,0.000,0.000,0.000,6.894,3.534,1.070,14.275,5.989,2.558,0.148,0.049,-0.006,-0.096,0.027,-0.091,0.058,-0.382,-0.427,2.000,0.000,2.000,0.000,2.000,0.000
5.339,0.000,0.000,0.000,6.902,3.546,1.071,14.413,6.060,2.579,0.094,0.054,0.042,-0.096,0.027,-0.091,0.050,-0.383,-0.428,2.000,0.000,2.000,0.000,2.000,0.000
5.367,0.000,0.000,0.000,6.909,3.559,1.070,14.551,6.131,2.600,0.068,0.029,0.053,-0.096,0.028,-0.091,0.051,-0.381,-0.411,2.000,0.000,2.000,0.000,2.000,0.000
5.398,0.000,0.000,0.000,6.923,3.582,1.069,14.828,6.274,2.643,-0.038,-0.049,0.086,-0.096,0.028,-0.091,0.048,-0.385,-0.403,2.000,0.000,2.000,0.000,2.000,0.000
5.425,0.000,0.000,0.000,6.932,3.593,1.068,14.966,6.346,2.665,-0.082,-0.044,0.078,-0.097,0.028,-0.090,0.048,-0.391,-0.376,2.000,0.000,2.000,0.000,2.000,0.000
5.452,0.000,0.000,0.000,6.949,3.613,1.066,15.244,6.490,2.707,-0.037,-0.027,0.039,-0.097,0.028,-0.089,0.049,-0.396,-0.369,2.000,0.000,2.000,0.000,2.000,0.000
5.479,0.000,0.000,0.000,6.958,3.622,1.065,15.383,6.562,2.729,-0.004,-0.024,-0.013,-0.098,0.028,-0.089,0.050,-0.396,-0.368,2.000,0.000,2.000,0.000,2.000,0.000
5.507,0.000,0.000,0.000,6.968,3.632,1.063,15.536,6.642,2.752,0.001,-0.029,-0.067,-0.098,0.027,-0.088,0.046,-0.399,-0.373,2.000,0.000,2.000,0.000,2.000,0.000
5.540,0.000,0.000,0.000,6.984,3.650,1.059,15.801,6.781,2.792,0.028,-0.090,-0.090,-0.099,0.027,-0.088,0.037,-0.401,-0.403,2.000,0.000,2.000,0.000,2.000,0.000
5.571,0.000,0.000,0.000,6.992,3.662,1.053,15.948,6.857,2.815,0.017,-0.154,-0.051,-0.099,0.025,-0.088,0.037,-0.404,-0.417,2.000,0.000,2.000,0.000,2.000,0.000
5.598,0.000,0.000,0.000,7.003,3.685,1.036,16.221,7.001,2.855,-0.077,-0.075,-0.011,-0.099,0.024,-0.088,0.032,-0.406,-0.420,2.000,0.000,2.000,0.000,2.000,0.000
5.626,0.000,0.000,0.000,7.006,3.697,1.024,16.361,7.074,2.876,-0.356,0.045,0.150,-0.100,0.023,-0.089,0.032,-0.400,-0.415,2.000,0.000,2.000,0.000,2.000,0.000
5.654,0.000,0.000,0.000,7.008,3.719,1.002,16.641,7.223,2.916,-0.420,0.123,0.277,-0.102,0.022,-0.088,0.049,-0.396,-0.398,2.000,0.000,2.000,0.000,2.000,0.000
5.681,0.000,0.000,0.000,7.008,3.728,0.994,16.782,7.297,2.936,-0.426,0.293,0.380,-0.104,0.022,-0.087,0.057,-0.390,-0.387,2.000,0.000,2.000,0.000,2.000,0.000
5.710,0.000,0.000,0.000,7.010,3.737,0.989,16.929,7.376,2.957,-0.182,0.632,0.384,-0.110,0.024,-0.083,0.064,-0.383,-0.378,2.000,0.000,2.000,0.000,2.000,0.000
5.737,0.000,0.000,0.000,7.015,3.750,0.985,17.202,7.522,2.996,0.015,0.684,0.265,-0.113,0.027,-0.081,0.065,-0.361,-0.353,2.000,0.000,2.000,0.000,2.000,0.000
5.764,0.000,0.000,0.000,7.019,3.758,0.984,17.343,7.597,3.015,0.178,0.453,-0.232,-0.117,0.035,-0.075,0.062,-0.349,-0.351,2.000,0.000,2.000,0.000,2.000,0.000
5.790,0.000,0.000,0.000,7.022,3.767,0.983,17.483,7.672,3.035,0.147,0.331,-0.217,-0.119,0.040,-0.074,0.047,-0.339,-0.357,2.000,0.000,2.000,0.000,2.000,0.000
5.818,0.000,0.000,0.000,7.026,3.791,0.979,17.764,7.823,3.074,0.117,0.290,-0.082,-0.120,0.045,-0.073,0.028,-0.325,-0.392,2.000,0.000,2.000,0.000,2.000,0.000
5.846,0.000,0.000,0.000,7.028,3.807,0.976,17.905,7.899,3.094,0.006,0.293,0.205,-0.121,0.055,-0.071,0.027,-0.319,-0.400,2.000,0.000,2.000,0.000,2.000,0.000
5.873,0.000,0.000,0.000,7.029,3.826,0.972,18.059,7.983,3.115,-0.098,0.216,0.307,-0.122,0.063,-0.068,0.016,-0.315,-0.409,2.000,0.000,2.000,0.000,2.000,0.000
5.899,0.000,0.000,0.000,7.033,3.859,0.967,18.326,8.129,3.152,-0.220,0.165,0.349,-0.122,0.066,-0.067,0.013,-0.309,-0.413,2.000,0.000,2.000,0.000,2.000,0.000
5.926,0.000,0.000,0.000,7.035,3.879,0.965,18.481,8.214,3.173,-0.241,0.200,0.425,-0.125,0.076,-0.062,0.019,-0.306,-0.392,2.000,0.000,2.000,0.000,2.000,0.000
5.954,0.000,0.000,0.000,7.041,3.913,0.965,18.749,8.362,3.210,-0.248,0.221,0.403,-0.127,0.080,-0.058,0.021,-0.301,-0.374,2.000,0.000,2.000,0.000,2.000,0.000
5.980,0.000,0.000,0.000,7.045,3.930,0.968,18.889,8.441,3.229,-0.204,0.211,0.378,-0.129,0.085,-0.053,0.021,-0.303,-0.379,2.000,0.000,2.000,0.000,2.000,0.000
6.007,0.000,0.000,0.000,7.050,3.947,0.974,19.030,8.519,3.249,0.048,0.188,0.305,-0.133,0.094,-0.045,0.023,-0.299,-0.363,2.000,0.000,2.000,0.000,2.000,0.000
6.036,0.000,0.000,0.000,7.065,3.977,0.986,19.313,8.678,3.288,0.110,0.170,0.249,-0.135,0.098,-0.040,0.015,-0.299,-0.368,2.000,0.000,2.000,0.000,2.000,0.000
6.063,0.000,0.000,0.000,7.075,3.991,0.992,19.454,8.758,3.308,0.122,0.180,0.145,-0.138,0.107,-0.031,0.008,-0.304,-0.374,2.000,0.000,2.000,0.000,2.000,0.000
6.093,0.000,0.000,0.000,7.098,4.018,1.004,19.737,8.918,3.348,0.150,0.173,0.098,-0.138,0.111,-0.026,-0.002,-0.304,-0.394,2.000,0.000,2.000,0.000,2.000,0.000
6.124,0.000,0.000,0.000,7.111,4.032,1.010,19.880,8.998,3.368,0.209,0.105,-0.021,-0.138,0.119,-0.019,-0.004,-0.300,-0.391,2.000,0.000,2.000,0.000,2.000,0.000
6.154,0.000,0.000,0.000,7.138,4.061,1.018,20.165,9.160,3.408,0.193,0.078,-0.024,-0.138,0.123,-0.016,-0.020,-0.301,-0.394,2.000,0.000,2.000,0.000,2.000,0.000
6.183,0.000,0.000,0.000,7.151,4.076,1.021,20.307,9.241,3.429,0.161,0.117,0.033,-0.135,0.130,-0.010,-0.032,-0.304,-0.378,2.000,0.000,2.000,0.000,2.000,0.000
6.211,0.000,0.000,0.000,7.178,4.109,1.025,20.594,9.405,3.470,0.170,0.123,0.038,-0.134,0.133,-0.008,-0.035,-0.301,-0.376,2.000,0.000,2.000,0.000,2.000,0.000
6.239,0.000,0.000,0.000,7.192,4.126,1.026,20.745,9.492,3.491,0.198,0.116,0.056,-0.133,0.137,-0.005,-0.051,-0.300,-0.395,2.000,0.000,2.000,0.000,2.000,0.000
6.266,0.000,0.000,0.000,7.203,4.143,1.026,20.882,9.570,3.511,0.112,0.093,0.110,-0.129,0.143,-0.001,-0.062,-0.300,-0.426,2.000,0.000,2.000,0.000,2.000,0.000
6.292,0.000,0.000,0.000,7.225,4.177,1.029,21.170,9.737,3.552,0.104,0.147,0.131,-0.127,0.146,0.001,-0.070,-0.295,-0.444,2.000,0.000,2.000,0.000,2.000,0.000
6.319,0.000,0.000,0.000,7.233,4.193,1.033,21.315,9.820,3.572,0.158,0.217,0.109,-0.125,0.149,0.004,-0.071,-0.290,-0.437,2.000,0.000,2.000,0.000,2.000,0.000
6.346,0.000,0.000,0.000,7.238,4.210,1.038,21.474,9.913,3.595,0.215,0.356,0.203,-0.120,0.155,0.008,-0.076,-0.276,-0.422,2.000,0.000,2.000,0.000,2.000,0.000
6.376,0.000,0.000,0.000,7.238,4.234,1.055,21.756,10.077,3.636,-0.106,0.553,0.389,-0.117,0.161,0.012,-0.066,-0.259,-0.409,2.000,0.000,2.000,0.000,2.000,0.000
6.405,0.000,0.000,0.000,7.238,4.239,1.071,21.894,10.158,3.656,-0.606,-0.211,0.527,-0.116,0.167,0.018,-0.057,-0.253,-0.387,2.000,0.000,2.000,0.000,2.000,0.000
6.435,0.000,0.000,0.000,7.245,4.237,1.108,22.183,10.327,3.700,-0.327,-0.754,0.149,-0.117,0.170,0.022,-0.026,-0.282,-0.369,2.000,0.000,2.000,0.000,2.000,0.000
6.468,0.000,0.000,0.000,7.247,4.233,1.123,22.328,10.412,3.722,0.369,-0.518,-0.347,-0.118,0.171,0.030,-0.022,-0.289,-0.368,2.000,0.000,2.000,0.000,2.000,0.000
6.495,0.000,0.000,0.000,7.244,4.224,1.141,22.618,10.581,3.767,0.453,0.111,-0.175,-0.118,0.170,0.032,-0.026,-0.282,-0.357,2.000,0.000,2.000,0.000,2.000,0.000
6.523,0.000,0.000,0.000,7.238,4.217,1.148,22.763,10.666,3.790,0.037,0.441,0.263,-0.115,0.170,0.036,-0.032,-0.271,-0.362,2.000,0.000,2.000,0.000,2.000,0.000
6.550,0.000,0.000,0.000,7.230,4.207,1.155,22.908,10.750,3.813,-0.210,-0.200,0.305,-0.114,0.171,0.038,-0.019,-0.261,-0.343,2.000,0.000,2.000,0.000,2.000,0.000
6.577,0.000,0.000,0.000,7.217,4.182,1.172,23.197,10.918,3.860,0.088,-0.259,0.136,-0.113,0.172,0.041,-0.009,-0.271,-0.346,2.000,0.000,2.000,0.000,2.000,0.000
6.605,0.000,0.000,0.000,7.212,4.169,1.177,23.341,11.001,3.883,0.476,-0.045,-0.048,-0.110,0.172,0.045,-0.016,-0.274,-0.365,2.000,0.000,2.000,0.000,2.000,0.000
6.633,0.000,0.000,0.000,7.204,4.146,1.174,23.629,11.168,3.930,0.337,-0.010,-0.016,-0.107,0.171,0.047,-0.033,-0.272,-0.377,2.000,0.000,2.000,0.000,2.000,0.000
6.659,0.000,0.000,0.000,7.201,4.135,1.167,23.780,11.254,3.955,0.117,-0.009,0.010,-0.105,0.171,0.049,-0.036,-0.273,-0.372,2.000,0.000,2.000,0.000,2.000,0.000
6.686,0.000,0.000,0.000,7.200,4.126,1.158,23.917,11.333,3.977,-0.108,-0.123,-0.082,-0.100,0.170,0.051,-0.034,-0.273,-0.337,2.000,0.000,2.000,0.000,2.000,0.000
6.716,0.000,0.000,0.000,7.201,4.110,1.137,24.213,11.502,4.024,-0.148,-0.244,-0.211,-0.098,0.169,0.052,-0.029,-0.284,-0.324,2.000,0.000,2.000,0.000,2.000,0.000
6.747,0.000,0.000,0.000,7.202,4.105,1.126,24.349,11.580,4.046,-0.210,-0.238,-0.232,-0.096,0.167,0.052,-0.032,-0.285,-0.318,2.000,0.000,2.000,0.000,2.000,0.000
6.773,0.000,0.000,0.000,7.199,4.099,1.102,24.637,11.744,4.090,-0.208,-0.213,-0.130,-0.095,0.165,0.052,-0.028,-0.291,-0.330,2.000,0.000,2.000,0.000,2.000,0.000
6.800,0.000,0.000,0.000,7.197,4.099,1.090,24.781,11.826,4.112,-0.132,-0.303,0.006,-0.096,0.163,0.051,-0.026,-0.297,-0.324,2.000,0.000,2.000,0.000,2.000,0.000
6.828,0.000,0.000,0.000,7.196,4.099,1.077,24.925,11.908,4.134,0.044,-0.415,0.066,-0.096,0.157,0.050,-0.032,-0.306,-0.376,2.000,0.000,2.000,0.000,2.000,0.000
6.855,0.000,0.000,0.000,7.196,4.103,1.050,25.213,12.072,4.176,0.060,-0.329,0.062,-0.096,0.153,0.050,-0.040,-0.325,-0.402,2.000,0.000,2.000,0.000,2.000,0.000
6.881,0.000,0.000,0.000,7.197,4.107,1.036,25.364,12.158,4.198,0.066,-0.231,0.022,-0.096,0.148,0.050,-0.040,-0.330,-0.407,2.499,0.025,2.459,-0.198,2.499,0.025
6.910,0.000,0.000,0.000,7.200,4.113,1.022,25.508,12.240,4.219,0.183,0.027,-0.395,-0.096,0.142,0.049,-0.055,-0.333,-0.429,2.499,0.025,2.459,-0.198,2.499,0.025
6.936,0.000,0.000,0.000,7.196,4.135,1.001,25.789,12.401,4.258,0.182,-0.049,-0.706,-0.095,0.139,0.047,-0.077,-0.317,-0.438,2.499,0.025,2.459,-0.198,2.499,0.025
6.963,0.000,0.000,0.000,7.187,4.153,0.995,25.933,12.484,4.278,-0.039,-0.332,-0.533,-0.093,0.132,0.040,-0.075,-0.322,-0.427,2.499,0.025,2.459,-0.198,2.499,0.025
6.990,0.000,0.000,0.000,7.176,4.174,0.992,26.084,12.571,4.299,0.015,0.064,-0.171,-0.092,0.128,0.036,-0.077,-0.326,-0.442,2.499,0.025,2.459,-0.198,2.499,0.025
7.017,0.000,0.000,0.000,7.160,4.207,1.001,26.363,12.735,4.338,0.232,0.404,0.066,-0.091,0.125,0.032,-0.074,-0.324,-0.441,2.499,0.025,2.459,-0.198,2.499,0.025
7.045,0.000,0.000,0.000,7.157,4.219,1.011,26.506,12.819,4.358,0.638,0.246,-0.180,-0.087,0.123,0.025,-0.083,-0.313,-0.457,2.499,0.025,2.459,-0.198,2.499,0.025
7.073,0.000,0.000,0.000,7.152,4.235,1.032,26.792,12.988,4.399,0.561,-0.040,-0.277,-0.084,0.123,0.022,-0.099,-0.307,-0.465,2.499,0.025,2.459,-0.198,2.499,0.025
7.098,0.000,0.000,0.000,7.150,4.237,1.042,26.936,13.073,4.420,0.222,-0.004,-0.071,-0.080,0.122,0.018,-0.083,-0.312,-0.442,2.499,0.025,2.459,-0.198,2.499,0.025
7.126,0.000,0.000,0.000,7.151,4.233,1.054,27.079,13.158,4.441,-0.348,0.435,0.370,-0.074,0.122,0.013,-0.080,-0.307,-0.438,2.499,0.025,2.459,-0.198,2.499,0.025
7.152,0.000,0.000,0.000,7.158,4.212,1.086,27.365,13.327,4.483,-0.169,0.434,0.192,-0.072,0.124,0.012,-0.051,-0.298,-0.403,2.499,0.025,2.459,-0.198,2.499,0.025
7.180,0.000,0.000,0.000,7.162,4.197,1.101,27.515,13.415,4.506,0.242,0.059,-0.217,-0.070,0.126,0.011,-0.047,-0.292,-0.418,2.499,0.025,2.459,-0.198,2.499,0.025
7.208,0.000,0.000,0.000,7.164,4.184,1.112,27.651,13.494,4.527,0.040,-0.558,-0.075,-0.066,0.128,0.008,-0.050,-0.297,-0.427,2.499,0.025,2.459,-0.198,2.499,0.025
7.235,0.000,0.000,0.000,7.170,4.157,1.119,27.938,13.661,4.572,-0.148,-0.557,0.010,-0.064,0.127,0.007,-0.045,-0.321,-0.419,2.499,0.025,2.459,-0.198,2.499,0.025
7.263,0.000,0.000,0.000,7.175,4.144,1.116,28.081,13.744,4.594,-0.281,0.205,0.057,-0.062,0.124,0.005,-0.034,-0.326,-0.419,2.499,0.025,2.459,-0.198,2.499,0.025
7.288,0.000,0.000,0.000,7.179,4.130,1.112,28.225,13.827,4.617,-0.302,0.283,0.035,-0.062,0.124,0.004,-0.029,-0.322,-0.429,2.499,0.025,2.459,-0.198,2.499,0.025
7.315,0.000,0.000,0.000,7.186,4.105,1.106,28.512,13.992,4.661,-0.369,0.109,0.038,-0.063,0.123,0.003,-0.012,-0.314,-0.421,2.499,0.025,2.459,-0.198,2.499,0.025
7.341,0.000,0.000,0.000,7.191,4.093,1.104,28.656,14.074,4.683,-0.412,-0.189,0.031,-0.065,0.123,0.003,-0.004,-0.324,-0.421,2.499,0.025,2.459,-0.198,2.499,0.025
7.367,0.000,0.000,0.000,7.197,4.083,1.100,28.800,14.155,4.705,-0.351,-0.338,-0.021,-0.067,0.122,0.002,0.004,-0.330,-0.416,2.499,0.025,2.459,-0.198,2.499,0.025
7.396,0.000,0.000,0.000,7.211,4.068,1.089,29.088,14.318,4.749,-0.138,-0.044,-0.108,-0.071,0.120,0.001,0.005,-0.340,-0.416,2.499,0.025,2.459,-0.198,2.499,0.025
7.423,0.000,0.000,0.000,7.218,4.064,1.081,29.232,14.400,4.771,-0.160,0.151,-0.032,-0.076,0.118,-0.000,0.001,-0.338,-0.430,2.499,0.025,2.459,-0.198,2.499,0.025
7.450,0.000,0.000,0.000,7.224,4.062,1.074,29.384,14.485,4.793,-0.183,0.039,0.005,-0.079,0.117,-0.001,0.005,-0.335,-0.434,2.499,0.025,2.459,-0.198,2.499,0.025
7.477,0.000,0.000,0.000,7.239,4.062,1.060,29.666,14.643,4.835,-0.153,-0.051,0.013,-0.082,0.117,-0.002,0.004,-0.340,-0.439,2.499,0.025,2.459,-0.198,2.499,0.025
7.504,0.000,0.000,0.000,7.249,4.066,1.053,29.811,14.725,4.856,-0.045,-0.044,-0.038,-0.087,0.116,-0.003,-0.010,-0.352,-0.466,2.499,0.025,2.459,-0.198,2.499,0.025
7.532,0.000,0.000,0.000,7.274,4.083,1.044,30.101,14.888,4.898,-0.078,-0.002,-0.034,-0.090,0.115,-0.003,-0.015,-0.362,-0.470,2.499,0.025,2.459,-0.198,2.499,0.025
7.558,0.000,0.000,0.000,7.289,4.094,1.045,30.254,14.974,4.920,-0.159,-0.045,-0.009,-0.092,0.114,-0.004,-0.012,-0.363,-0.465,2.499,0.025,2.459,-0.198,2.499,0.025
7.586,0.000,0.000,0.000,7.303,4.105,1.049,30.393,15.051,4.940,0.332,0.108,-0.144,-0.097,0.113,-0.005,-0.018,-0.368,-0.455,2.499,0.025,2.459,-0.198,2.499,0.025
7.612,0.000,0.000,0.000,7.327,4.131,1.062,30.685,15.216,4.982,0.577,0.199,-0.269,-0.097,0.113,-0.006,-0.040,-0.354,-0.484,2.499,0.025,2.459,-0.198,2.499,0.025
7.639,0.000,0.000,0.000,7.334,4.144,1.071,30.832,15.299,5.003,0.573,0.083,-0.285,-0.097,0.113,-0.008,-0.050,-0.352,-0.492,2.499,0.025,2.459,-0.198,2.499,0.025
7.667,0.000,0.000,0.000,7.338,4.156,1.080,30.979,15.382,5.025,0.517,0.029,-0.044,-0.093,0.114,-0.011,-0.058,-0.345,-0.508,2.499,0.025,2.459,-0.198,2.499,0.025
7.695,0.000,0.000,0.000,7.341,4.176,1.101,31.272,15.549,5.068,0.545,-0.098,0.022,-0.090,0.114,-0.013,-0.075,-0.339,-0.518,2.499,0.025,2.459,-0.198,2.499,0.025
7.721,0.000,0.000,0.000,7.338,4.183,1.107,31.419,15.632,5.090,0.602,-0.254,-0.027,-0.086,0.114,-0.014,-0.086,-0.344,-0.497,2.499,0.025,2.459,-0.198,2.499,0.025
7.750,0.000,0.000,0.000,7.333,4.188,1.109,31.573,15.720,5.114,0.125,0.225,0.259,-0.076,0.113,-0.017,-0.086,-0.332,-0.489,2.499,0.025,2.459,-0.198,2.499,0.025
7.777,0.000,0.000,0.000,7.321,4.184,1.110,31.859,15.883,5.157,-0.525,0.351,0.615,-0.072,0.113,-0.017,-0.046,-0.328,-0.456,2.499,0.025,2.459,-0.198,2.499,0.025
7.804,0.000,0.000,0.000,7.317,4.167,1.115,32.020,15.975,5.181,-0.406,0.151,-0.203,-0.069,0.114,-0.015,-0.030,-0.330,-0.461,2.499,0.025,2.459,-0.198,2.499,0.025
7.831,0.000,0.000,0.000,7.309,4.128,1.122,32.298,16.133,5.224,-0.138,0.453,-0.378,-0.069,0.115,-0.015,0.001,-0.320,-0.450,2.499,0.025,2.459,-0.198,2.499,0.025
7.857,0.000,0.000,0.000,7.301,4.106,1.122,32.444,16.215,5.246,-0.242,0.360,-0.351,-0.069,0.117,-0.016,0.019,-0.291,-0.435,2.499,0.025,2.459,-0.198,2.499,0.025
7.885,0.000,0.000,0.000,7.292,4.084,1.119,32.597,16.301,5.270,-0.645,-0.183,-0.121,-0.071,0.120,-0.018,0.031,-0.290,-0.447,2.499,0.025,2.459,-0.198,2.499,0.025
7.910,0.000,0.000,0.000,7.282,4.065,1.115,32.736,16.379,5.291,-0.516,-0.053,0.045,-0.074,0.121,-0.019,0.049,-0.291,-0.442,2.499,0.025,2.459,-0.198,2.499,0.025
7.937,0.000,0.000,0.000,7.268,4.027,1.103,33.027,16.541,5.336,-0.243,0.235,0.117,-0.078,0.123,-0.020,0.068,-0.293,-0.423,2.499,0.025,2.459,-0.198,2.499,0.025
7.965,0.000,0.000,0.000,7.265,4.010,1.094,33.172,16.621,5.358,-0.057,0.380,-0.111,-0.085,0.127,-0.022,0.069,-0.285,-0.447,2.499,0.025,2.459,-0.198,2.499,0.025
7.992,0.000,0.000,0.000,7.259,3.981,1.071,33.462,16.781,5.401,-0.098,0.332,-0.165,-0.088,0.130,-0.023,0.071,-0.270,-0.446,2.499,0.025,2.459,-0.198,2.499,0.025
8.019,0.000,0.000,0.000,7.257,3.970,1.059,33.608,16.860,5.422,-0.213,0.203,-0.117,-0.091,0.133,-0.024,0.073,-0.263,-0.456,2.499,0.025,2.459,-0.198,2.499,0.025
8.046,0.000,0.000,0.000,7.253,3.961,1.047,33.753,16.940,5.443,-0.497,-0.061,-0.034,-0.098,0.139,-0.026,0.082,-0.261,-0.467,2.499,0.025,2.459,-0.198,2.499,0.025
8.073,0.000,0.000,0.000,7.245,3.945,1.027,34.043,17.098,5.485,-0.550,-0.202,-0.035,-0.102,0.141,-0.028,0.102,-0.263,-0.460,2.499,0.025,2.459,-0.198,2.499,0.025
8.099,0.000,0.000,0.000,7.240,3.939,1.019,34.187,17.176,5.505,-0.615,-0.320,-0.039,-0.108,0.142,-0.029,0.113,-0.268,-0.451,2.499,0.025,2.459,-0.198,2.499,0.025
8.126,0.000,0.000,0.000,7.236,3.934,1.012,34.339,17.259,5.526,-0.571,-0.296,-0.068,-0.120,0.143,-0.031,0.126,-0.275,-0.466,2.499,0.025,2.459,-0.198,2.499,0.025
8.155,0.000,0.000,0.000,7.227,3.930,1.004,34.621,17.412,5.566,-0.336,-0.183,-0.178,-0.127,0.143,-0.032,0.138,-0.284,-0.464,2.499,0.025,2.459,-0.198,2.499,0.025
8.180,0.000,0.000,0.000,7.221,3.932,0.999,34.766,17.491,5.586,-0.123,-0.051,-0.271,-0.134,0.142,-0.034,0.127,-0.280,-0.484,2.499,0.025,2.459,-0.198,2.499,0.025
8.207,0.000,0.000,0.000,7.214,3.938,0.995,34.910,17.570,5.606,0.071,0.128,-0.254,-0.145,0.141,-0.038,0.129,-0.279,-0.513,2.499,0.025,2.459,-0.198,2.499,0.025
8.233,0.000,0.000,0.000,7.198,3.959,0.985,35.199,17.728,5.645,0.120,0.114,-0.220,-0.150,0.141,-0.040,0.111,-0.270,-0.531,2.499,0.025,2.459,-0.198,2.499,0.025
8.259,0.000,0.000,0.000,7.189,3.974,0.980,35.342,17.807,5.665,0.189,0.133,-0.178,-0.154,0.141,-0.043,0.091,-0.263,-0.552,2.499,0.025,2.459,-0.198,2.499,0.025
8.287,0.000,0.000,0.000,7.179,3.991,0.976,35.486,17.887,5.685,0.299,0.187,-0.009,-0.160,0.142,-0.048,0.088,-0.259,-0.561,2.499,0.025,2.459,-0.198,2.499,0.025
8.313,0.000,0.000,0.000,7.159,4.029,0.970,35.773,18.047,5.723,0.248,0.161,0.065,-0.161,0.143,-0.050,0.066,-0.250,-0.578,2.499,0.025,2.459,-0.198,2.499,0.025
8.339,0.000,0.000,0.000,7.150,4.049,0.971,35.916,18.128,5.743,0.200,0.150,0.119,-0.162,0.145,-0.052,0.056,-0.247,-0.571,2.499,0.025,2.459,-0.198,2.499,0.025
8.369,0.000,0.000,0.000,7.140,4.069,0.977,36.066,18.213,5.763,0.187,0.119,0.130,-0.162,0.147,-0.054,0.053,-0.245,-0.572,2.499,0.025,2.459,-0.198,2.499,0.025
8.398,0.000,0.000,0.000,7.127,4.105,0.996,36.344,18.372,5.802,0.392,-0.226,-0.021,-0.162,0.149,-0.056,0.037,-0.254,-0.575,2.499,0.025,2.459,-0.198,2.499,0.025
8.428,0.000,0.000,0.000,7.123,4.123,1.007,36.487,18.455,5.822,0.495,-0.812,-0.351,-0.158,0.148,-0.058,0.023,-0.269,-0.592,2.499,0.025,2.459,-0.198,2.499,0.025
8.458,0.000,0.000,0.000,7.117,4.153,1.020,36.772,18.620,5.862,0.097,-0.700,-0.309,-0.155,0.145,-0.060,0.024,-0.278,-0.595,2.499,0.025,2.459,-0.198,2.499,0.025
8.488,0.000,0.000,0.000,7.109,4.162,1.024,36.914,18.703,5.883,-1.492,0.858,0.659,-0.153,0.140,-0.064,0.040,-0.278,-0.599,2.499,0.025,2.459,-0.198,2.499,0.025
8.519,0.000,0.000,0.000,7.096,4.160,1.059,37.198,18.870,5.924,-1.304,0.507,1.003,-0.156,0.139,-0.064,0.110,-0.257,-0.531,2.499,0.025,2.459,-0.198,2.499,0.025
8.549,0.000,0.000,0.000,7.099,4.149,1.084,37.347,18.957,5.947,0.131,-0.808,-0.496,-0.165,0.138,-0.060,0.131,-0.276,-0.514,2.499,0.025,2.459,-0.198,2.499,0.025
8.577,0.000,0.000,0.000,7.107,4.131,1.114,37.624,19.119,5.990,0.228,-0.446,-0.531,-0.169,0.135,-0.060,0.126,-0.298,-0.512,2.499,0.025,2.459,-0.198,2.499,0.025
8.605,0.000,0.000,0.000,7.111,4.123,1.121,37.766,19.201,6.012,-0.084,0.436,0.092,-0.175,0.131,-0.061,0.125,-0.295,-0.521,2.499,0.025,2.459,-0.198,2.499,0.025
8.632,0.000,0.000,0.000,7.122,4.107,1.132,38.058,19.370,6.058,-0.056,0.337,0.045,-0.178,0.131,-0.061,0.131,-0.290,-0.519,2.499,0.025,2.459,-0.198,2.499,0.025
8.658,0.000,0.000,0.000,7.127,4.101,1.135,38.193,19.448,6.080,0.037,0.166,-0.050,-0.181,0.130,-0.061,0.130,-0.282,-0.524,2.499,0.025,2.459,-0.198,2.499,0.025
8.689,0.000,0.000,0.000,7.134,4.095,1.137,38.350,19.538,6.105,0.116,-0.026,-0.061,-0.185,0.131,-0.062,0.129,-0.282,-0.538,2.499,0.025,2.459,-0.198,2.499,0.025
8.718,0.000,0.000,0.000,7.146,4.088,1.136,38.621,19.693,6.148,0.034,-0.039,0.043,-0.186,0.131,-0.062,0.121,-0.285,-0.535,2.499,0.025,2.459,-0.198,2.499,0.025
8.748,0.000,0.000,0.000,7.154,4.087,1.133,38.786,19.787,6.174,-0.053,-0.029,0.122,-0.188,0.130,-0.062,0.118,-0.289,-0.535,2.499,0.025,2.459,-0.198,2.499,0.025
8.779,0.000,0.000,0.000,7.167,4.088,1.131,39.051,19.939,6.216,0.065,-0.018,0.127,-0.190,0.130,-0.062,0.108,-0.295,-0.550,2.499,0.025,2.459,-0.198,2.499,0.025
8.811,0.000,0.000,0.000,7.186,4.099,1.127,39.338,20.102,6.261,0.162,-0.195,0.065,-0.191,0.130,-0.061,0.106,-0.297,-0.563,2.499,0.025,2.459,-0.198,2.499,0.025
8.840,0.000,0.000,0.000,7.196,4.109,1.126,39.482,20.184,6.284,0.045,-0.442,-0.071,-0.191,0.129,-0.060,0.087,-0.315,-0.592,2.499,0.025,2.459,-0.198,2.499,0.025
8.868,0.000,0.000,0.000,7.207,4.122,1.127,39.633,20.271,6.307,-0.148,-0.632,-0.197,-0.191,0.126,-0.060,0.078,-0.335,-0.602,2.499,0.025,2.459,-0.198,2.499,0.025
8.898,0.000,0.000,0.000,7.230,4.151,1.137,39.914,20.432,6.352,0.172,0.004,-0.186,-0.192,0.121,-0.060,0.071,-0.349,-0.606,2.499,0.025,2.459,-0.198,2.499,0.025
8.929,0.000,0.000,0.000,7.240,4.167,1.146,40.059,20.515,6.374,0.911,0.640,-0.313,-0.190,0.117,-0.062,0.059,-0.339,-0.620,2.499,0.025,2.459,-0.198,2.499,0.025
8.958,0.000,0.000,0.000,7.253,4.200,1.165,40.349,20.683,6.421,0.889,0.516,-0.264,-0.187,0.117,-0.064,0.021,-0.310,-0.658,2.499,0.025,2.459,-0.198,2.499,0.025
8.988,0.000,0.000,0.000,7.256,4.214,1.174,40.494,20.767,6.444,0.723,0.309,-0.005,-0.176,0.120,-0.068,0.010,-0.301,-0.657,2.499,0.025,2.459,-0.198,2.499,0.025
9.017,0.000,0.000,0.000,7.262,4.235,1.192,40.784,20.936,6.491,0.754,0.354,0.079,-0.169,0.122,-0.070,-0.010,-0.285,-0.659,2.499,0.025,2.459,-0.198,2.499,0.025
9.048,0.000,0.000,0.000,7.263,4.241,1.195,40.930,21.021,6.515,0.111,0.255,0.293,-0.155,0.127,-0.072,-0.022,-0.282,-0.620,2.499,0.025,2.459,-0.198,2.499,0.025
9.079,0.000,0.000,0.000,7.258,4.248,1.192,41.220,21.190,6.563,-0.738,0.556,0.866,-0.148,0.130,-0.072,-0.009,-0.251,-0.601,2.499,0.025,2.459,-0.198,2.499,0.025
9.111,0.000,0.000,0.000,7.261,4.226,1.203,41.510,21.360,6.611,-1.031,-0.038,0.902,-0.143,0.138,-0.067,0.055,-0.256,-0.511,2.499,0.025,2.459,-0.198,2.499,0.025
9.138,0.000,0.000,0.000,7.263,4.208,1.208,41.656,21.444,6.635,-0.519,-0.465,0.302,-0.143,0.141,-0.062,0.079,-0.255,-0.499,2.499,0.025,2.459,-0.198,2.499,0.025
9.164,0.000,0.000,0.000,7.263,4.189,1.211,41.801,21.528,6.659,-0.358,-0.065,0.518,-0.146,0.144,-0.051,0.083,-0.262,-0.495,2.499,0.025,2.459,-0.198,2.499,0.025
9.189,0.000,0.000,0.000,7.263,4.170,1.213,41.946,21.612,6.683,-0.626,-0.092,0.811,-0.149,0.145,-0.045,0.099,-0.269,-0.482,2.499,0.025,2.459,-0.198,2.499,0.025
9.214,0.000,0.000,0.000,7.273,4.129,1.218,42.237,21.778,6.732,-0.577,-0.400,0.646,-0.153,0.145,-0.038,0.121,-0.292,-0.463,2.499,0.025,2.459,-0.198,2.499,0.025
9.240,0.000,0.000,0.000,7.283,4.111,1.220,42.382,21.860,6.756,-0.307,-0.644,0.178,-0.157,0.144,-0.031,0.127,-0.304,-0.463,2.499,0.025,2.459,-0.198,2.499,0.025
9.265,0.000,0.000,0.000,7.294,4.097,1.217,42.536,21.946,6.782,0.099,-0.426,-0.197,-0.164,0.140,-0.020,0.108,-0.319,-0.495,2.499,0.025,2.459,-0.198,2.499,0.025
9.291,0.000,0.000,0.000,7.314,4.086,1.197,42.820,22.106,6.829,0.022,-0.120,-0.020,-0.167,0.137,-0.016,0.108,-0.327,-0.502,2.499,0.025,2.459,-0.198,2.499,0.025
9.316,0.000,0.000,0.000,7.323,4.085,1.183,42.967,22.188,6.853,-0.154,0.112,0.136,-0.170,0.134,-0.012,0.097,-0.328,-0.511,2.499,0.025,2.459,-0.198,2.499,0.025
9.343,0.000,0.000,0.000,7.331,4.085,1.170,43.113,22.269,6.876,-0.298,0.077,0.046,-0.176,0.130,-0.004,0.096,-0.324,-0.485,2.499,0.025,2.459,-0.198,2.499,0.025
9.368,0.000,0.000,0.000,7.339,4.087,1.158,43.260,22.351,6.900,-0.298,0.077,0.046,-0.176,0.130,-0.004,0.102,-0.323,-0.478,2.499,0.025,2.459,-0.198,2.499,0.025
9.395,0.000,0.000,0.000,7.351,4.092,1.139,43.554,22.515,6.946,-0.291,-0.068,-0.061,-0.183,0.127,0.003,0.112,-0.326,-0.465,2.499,0.025,2.459,-0.198,2.499,0.025
9.425,0.000,0.000,0.000,7.356,4.095,1.133,43.701,22.597,6.968,0.015,-0.027,-0.343,-0.191,0.124,0.007,0.111,-0.324,-0.486,2.499,0.025,2.459,-0.198,2.499,0.025
9.453,0.000,0.000,0.000,7.360,4.107,1.122,43.995,22.761,7.013,0.347,0.012,-0.407,-0.194,0.123,0.008,0.090,-0.318,-0.532,2.499,0.025,2.459,-0.198,2.499,0.025
9.482,0.000,0.000,0.000,7.359,4.118,1.113,44.157,22.851,7.038,0.511,0.169,-0.281,-0.196,0.121,0.007,0.082,-0.316,-0.568,2.499,0.025,2.459,-0.198,2.499,0.025
9.511,0.000,0.000,0.000,7.357,4.131,1.104,44.304,22.934,7.060,0.367,0.206,-0.173,-0.196,0.121,0.006,0.057,-0.307,-0.604,2.499,0.025,2.459,-0.198,2.499,0.025
9.540,0.000,0.000,0.000,7.349,4.160,1.088,44.584,23.091,7.102,0.214,0.173,-0.075,-0.195,0.121,0.005,0.041,-0.299,-0.629,2.499,0.025,2.459,-0.198,2.499,0.025
9.569,0.000,0.000,0.000,7.345,4.176,1.084,44.731,23.174,7.124,0.192,-0.072,0.079,-0.193,0.122,0.003,0.041,-0.298,-0.618,2.499,0.025,2.459,-0.198,2.499,0.025
9.601,0.000,0.000,0.000,7.343,4.206,1.081,45.032,23.346,7.168,0.310,-0.149,0.004,-0.191,0.122,0.002,0.029,-0.308,-0.575,2.499,0.025,2.459,-0.198,2.499,0.025
9.632,0.000,0.000,0.000,7.348,4.230,1.085,45.318,23.511,7.210,0.247,-0.400,-0.136,-0.186,0.121,0.000,0.019,-0.327,-0.578,2.499,0.025,2.459,-0.198,2.499,0.025
9.661,0.000,0.000,0.000,7.352,4.238,1.087,45.465,23.595,7.232,-0.147,-0.480,-0.144,-0.184,0.120,-0.001,0.036,-0.336,-0.550,2.499,0.025,2.459,-0.198,2.499,0.025
9.690,0.000,0.000,0.000,7.355,4.241,1.093,45.612,23.680,7.254,-1.024,0.093,0.260,-0.182,0.115,-0.003,0.048,-0.341,-0.554,2.499,0.025,2.459,-0.198,2.499,0.025
9.719,0.000,0.000,0.000,7.360,4.233,1.121,45.914,23.854,7.299,-0.982,0.067,0.441,-0.185,0.114,-0.003,0.103,-0.342,-0.521,2.499,0.025,2.459,-0.198,2.499,0.025
9.750,0.000,0.000,0.000,7.366,4.220,1.140,46.061,23.939,7.322,-0.462,-0.662,-0.159,-0.193,0.110,-0.002,0.132,-0.359,-0.513,2.499,0.025,2.459,-0.198,2.499,0.025
9.779,0.000,0.000,0.000,7.383,4.194,1.172,46.349,24.103,7.367,-0.077,-0.509,-0.496,-0.198,0.106,-0.002,0.141,-0.384,-0.531,2.499,0.025,2.459,-0.198,2.499,0.025
9.809,0.000,0.000,0.000,7.392,4.183,1.180,46.504,24.191,7.391,0.125,0.329,-0.457,-0.206,0.099,-0.005,0.139,-0.387,-0.538,2.499,0.025,2.459,-0.198,2.499,0.025
9.837,0.000,0.000,0.000,7.405,4.169,1.184,46.800,24.358,7.439,0.078,0.608,-0.429,-0.209,0.097,-0.008,0.133,-0.367,-0.549,2.499,0.025,2.459,-0.198,2.499,0.025
9.867,0.000,0.000,0.000,7.407,4.164,1.183,46.941,24.437,7.461,0.023,0.702,-0.458,-0.213,0.097,-0.012,0.131,-0.343,-0.556,2.499,0.025,2.459,-0.198,2.499,0.025
9.897,0.000,0.000,0.000,7.403,4.156,1.185,47.237,24.603,7.508,-0.133,0.650,-0.293,-0.217,0.099,-0.019,0.136,-0.313,-0.565,2.499,0.025,2.459,-0.198,2.499,0.025
9.924,0.000,0.000,0.000,7.399,4.153,1.189,47.385,24.686,7.532,0.173,0.044,-0.277,-0.221,0.105,-0.027,0.137,-0.305,-0.576,2.499,0.025,2.459,-0.198,2.499,0.025
9.949,0.000,0.000,0.000,7.396,4.150,1.193,47.533,24.769,7.556,0.414,-0.219,-0.446,-0.223,0.108,-0.032,0.129,-0.304,-0.591,2.499,0.025,2.459,-0.198,2.499,0.025
9.975,0.000,0.000,0.000,7.389,4.152,1.190,47.828,24.935,7.604,0.478,-0.177,-0.421,-0.223,0.110,-0.037,0.096,-0.306,-0.621,2.499,0.025,2.459,-0.198,2.499,0.025
10.000,0.000,0.000,0.000,7.385,4.159,1.183,47.984,25.023,7.629,0.400,0.028,-0.236,-0.222,0.112,-0.043,0.090,-0.306,-0.642,2.499,0.025,2.459,-0.198,2.499,0.025
10.025,0.000,0.000,0.000,7.384,4.167,1.174,48.124,25.102,7.651,0.191,0.110,0.013,-0.220,0.115,-0.052,0.069,-0.309,-0.677,2.499,0.025,2.459,-0.198,2.499,0.025
10.050,0.000,0.000,0.000,7.384,4.178,1.164,48.272,25.185,7.674,0.154,0.078,-0.155,-0.218,0.117,-0.056,0.067,-0.307,-0.685,2.499,0.025,2.459,-0.198,2.499,0.025
10.079,0.000,0.000,0.000,7.387,4.206,1.145,48.574,25.357,7.722,0.109,0.138,-0.319,-0.216,0.119,-0.060,0.049,-0.304,-0.704,2.499,0.025,2.459,-0.198,2.499,0.025
10.108,0.000,0.000,0.000,7.387,4.222,1.141,48.715,25.437,7.743,0.321,0.682,-0.239,-0.212,0.124,-0.069,0.042,-0.298,-0.724,2.499,0.025,2.459,-0.198,2.499,0.025
10.137,0.000,0.000,0.000,7.390,4.250,1.147,49.010,25.606,7.789,0.469,0.779,-0.147,-0.209,0.128,-0.073,0.032,-0.271,-0.719,2.499,0.025,2.459,-0.198,2.499,0.025
10.165,0.000,0.000,0.000,7.391,4.261,1.157,49.158,25.692,7.812,0.602,0.276,-0.298,-0.201,0.139,-0.083,0.024,-0.259,-0.725,2.499,0.025,2.459,-0.198,2.499,0.025
10.190,0.000,0.000,0.000,7.391,4.271,1.168,49.306,25.777,7.835,0.648,0.051,-0.230,-0.196,0.144,-0.087,0.016,-0.252,-0.745,2.499,0.025,2.459,-0.198,2.499,0.025
10.218,0.000,0.000,0.000,7.391,4.285,1.187,49.602,25.948,7.883,0.597,-0.055,-0.060,-0.190,0.149,-0.091,0.001,-0.248,-0.740,2.499,0.025,2.459,-0.198,2.499,0.025
10.244,0.000,0.000,0.000,7.390,4.288,1.192,49.749,26.034,7.906,-0.226,0.550,0.588,-0.178,0.157,-0.098,-0.008,-0.250,-0.737,2.499,0.025,2.459,-0.198,2.499,0.025
10.269,0.000,0.000,0.000,7.386,4.289,1.195,49.897,26.120,7.930,-0.672,0.574,0.983,-0.173,0.162,-0.099,0.007,-0.236,-0.717,2.499,0.025,2.459,-0.198,2.499,0.025
10.296,0.000,0.000,0.000,7.383,4.276,1.214,50.192,26.291,7.978,-0.679,-0.110,0.877,-0.171,0.167,-0.098,0.050,-0.244,-0.651,2.499,0.025,2.459,-0.198,2.499,0.025
10.323,0.000,0.000,0.000,7.387,4.261,1.227,50.348,26.381,8.004,-0.323,-1.279,-0.260,-0.169,0.171,-0.095,0.058,-0.262,-0.645,2.499,0.025,2.459,-0.198,2.499,0.025
10.350,0.000,0.000,0.000,7.394,4.244,1.237,50.503,26.470,8.030,-0.308,-0.880,-0.302,-0.169,0.170,-0.094,0.077,-0.292,-0.625,2.499,0.025,2.459,-0.198,2.499,0.025
10.377,0.000,0.000,0.000,7.406,4.211,1.252,50.791,26.635,8.078,-0.180,-0.214,-0.246,-0.170,0.166,-0.093,0.092,-0.312,-0.604,2.499,0.025,2.459,-0.198,2.499,0.025
10.405,0.000,0.000,0.000,7.410,4.197,1.257,50.932,26.715,8.102,0.182,-0.015,-0.208,-0.171,0.163,-0.094,0.091,-0.311,-0.633,2.499,0.025,2.459,-0.198,2.499,0.025
10.432,0.000,0.000,0.000,7.415,4.175,1.256,51.229,26.882,8.153,0.084,-0.299,-0.184,-0.172,0.161,-0.095,0.079,-0.312,-0.650,2.499,0.025,2.459,-0.198,2.499,0.025
10.459,0.000,0.000,0.000,7.416,4.168,1.247,51.377,26.965,8.178,-0.077,-0.479,-0.095,-0.172,0.158,-0.096,0.068,-0.316,-0.655,2.499,0.025,2.459,-0.198,2.499,0.025
10.487,0.000,0.000,0.000,7.416,4.165,1.235,51.525,27.049,8.202,-0.226,-0.308,0.151,-0.173,0.151,-0.097,0.071,-0.325,-0.669,2.499,0.025,2.459,-0.198,2.499,0.025
10.513,0.000,0.000,0.000,7.414,4.163,1.202,51.822,27.215,8.251,-0.279,-0.255,0.231,-0.174,0.147,-0.098,0.073,-0.330,-0.665,2.499,0.025,2.459,-0.198,2.499,0.025
10.539,0.000,0.000,0.000,7.412,4.164,1.184,51.970,27.299,8.275,-0.346,-0.292,0.257,-0.176,0.143,-0.097,0.077,-0.333,-0.670,2.499,0.025,2.459,-0.198,2.499,0.025
10.568,0.000,0.000,0.000,7.410,4.165,1.165,52.118,27.382,8.299,-0.385,-0.293,0.184,-0.181,0.134,-0.096,0.085,-0.339,-0.670,2.499,0.025,2.459,-0.198,2.499,0.025
10.595,0.000,0.000,0.000,7.404,4.169,1.129,52.415,27.549,8.344,-0.320,-0.177,0.140,-0.184,0.130,-0.094,0.096,-0.345,-0.663,2.499,0.025,2.459,-0.198,2.499,0.025
10.625,0.000,0.000,0.000,7.399,4.171,1.110,52.563,27.632,8.367,-0.534,-0.821,0.370,-0.191,0.120,-0.091,0.098,-0.346,-0.651,2.499,0.025,2.459,-0.198,2.499,0.025
10.653,0.000,0.000,0.000,7.389,4.177,1.078,52.858,27.799,8.411,-0.764,-1.184,0.728,-0.196,0.114,-0.089,0.115,-0.383,-0.634,2.499,0.025,2.459,-0.198,2.499,0.025
10.681,0.000,0.000,0.000,7.384,4.182,1.066,53.006,27.882,8.432,-0.797,-1.016,1.060,-0.202,0.105,-0.084,0.130,-0.402,-0.611,2.499,0.025,2.459,-0.198,2.499,0.025
10.709,0.000,0.000,0.000,7.383,4.190,1.057,53.154,27.966,8.453,0.023,-0.567,1.390,-0.216,0.086,-0.070,0.126,-0.432,-0.624,2.499,0.025,2.459,-0.198,2.499,0.025
10.740,0.000,0.000,0.000,7.388,4.208,1.044,53.449,28.134,8.495,0.473,0.123,0.954,-0.221,0.077,-0.061,0.101,-0.449,-0.646,2.499,0.025,2.459,-0.198,2.499,0.025
10.768,0.000,0.000,0.000,7.395,4.221,1.044,53.597,28.218,8.516,0.705,0.352,-0.191,-0.227,0.063,-0.041,0.086,-0.441,-0.637,2.499,0.025,2.459,-0.198,2.499,0.025
10.798,0.000,0.000,0.000,7.408,4.252,1.052,53.893,28.388,8.558,0.630,0.170,-0.667,-0.227,0.057,-0.033,0.046,-0.432,-0.662,2.499,0.025,2.459,-0.198,2.499,0.025
10.826,0.000,0.000,0.000,7.413,4.272,1.061,54.041,28.473,8.579,0.454,-0.364,-0.958,-0.225,0.048,-0.025,0.020,-0.431,-0.656,2.499,0.025,2.459,-0.198,2.499,0.025
10.856,0.000,0.000,0.000,7.414,4.308,1.084,54.338,28.645,8.622,0.213,-0.304,-0.706,-0.223,0.043,-0.024,0.019,-0.437,-0.646,2.499,0.025,2.459,-0.198,2.499,0.025
10.884,0.000,0.000,0.000,7.413,4.319,1.103,54.493,28.735,8.645,-0.395,0.564,0.374,-0.220,0.036,-0.022,0.029,-0.423,-0.629,2.499,0.025,2.459,-0.198,2.499,0.025
10.912,0.000,0.000,0.000,7.415,4.317,1.149,54.783,28.904,8.689,-0.200,0.144,-0.024,-0.220,0.035,-0.021,0.065,-0.417,-0.601,2.499,0.025,2.459,-0.198,2.499,0.025
10.942,0.000,0.000,0.000,7.419,4.309,1.170,54.931,28.990,8.712,-0.397,-0.035,-0.596,-0.221,0.032,-0.020,0.084,-0.426,-0.626,2.499,0.025,2.459,-0.198,2.499,0.025
10.970,0.000,0.000,0.000,7.425,4.299,1.190,55.094,29.085,8.738,-0.484,0.206,-0.538,-0.222,0.031,-0.021,0.093,-0.427,-0.643,2.499,0.025,2.459,-0.198,2.499,0.025
10.998,0.000,0.000,0.000,7.436,4.279,1.222,55.377,29.248,8.784,-0.268,0.308,-0.412,-0.225,0.031,-0.024,0.116,-0.418,-0.636,2.499,0.025,2.459,-0.198,2.499,0.025
11.029,0.000,0.000,0.000,7.443,4.268,1.239,55.525,29.333,8.808,0.511,0.447,-0.483,-0.228,0.032,-0.029,0.120,-0.415,-0.650,2.499,0.025,2.459,-0.198,2.499,0.025
11.059,0.000,0.000,0.000,7.457,4.245,1.266,55.823,29.503,8.859,0.691,0.294,-0.617,-0.228,0.034,-0.034,0.099,-0.400,-0.672,2.499,0.025,2.459,-0.198,2.499,0.025
11.088,0.000,0.000,0.000,7.463,4.236,1.272,55.973,29.588,8.884,0.437,0.039,-0.660,-0.225,0.039,-0.044,0.088,-0.398,-0.684,2.499,0.025,2.459,-0.198,2.499,0.025
11.116,0.000,0.000,0.000,7.470,4.220,1.274,56.271,29.757,8.935,0.307,-0.001,-0.511,-0.222,0.041,-0.051,0.071,-0.392,-0.695,2.499,0.025,2.459,-0.198,2.499,0.025
11.147,0.000,0.000,0.000,7.472,4.215,1.270,56.421,29.842,8.960,0.198,-0.220,-0.164,-0.216,0.044,-0.064,0.063,-0.389,-0.735,2.499,0.025,2.459,-0.198,2.499,0.025
11.177,0.000,0.000,0.000,7.474,4.206,1.255,56.720,30.010,9.011,0.064,-0.463,0.031,-0.213,0.044,-0.070,0.065,-0.411,-0.738,2.499,0.025,2.459,-0.198,2.499,0.025
11.207,0.000,0.000,0.000,7.478,4.201,1.245,56.869,30.094,9.036,-0.204,-0.363,0.042,-0.208,0.043,-0.080,0.069,-0.421,-0.735,2.499,0.025,2.459,-0.198,2.499,0.025
11.236,0.000,0.000,0.000,7.488,4.188,1.224,57.168,30.262,9.085,-0.056,-0.231,-0.183,-0.206,0.041,-0.084,0.078,-0.437,-0.708,2.499,0.025,2.459,-0.198,2.499,0.025
11.264,0.000,0.000,0.000,7.491,4.184,1.213,57.326,30.350,9.111,0.365,-0.304,-0.319,-0.202,0.036,-0.093,0.066,-0.437,-0.711,2.499,0.025,2.459,-0.198,2.499,0.025
11.293,0.000,0.000,0.000,7.494,4.183,1.190,57.618,30.513,9.158,0.330,-0.307,-0.211,-0.200,0.034,-0.098,0.045,-0.446,-0.732,2.499,0.025,2.459,-0.198,2.499,0.025
11.321,0.000,0.000,0.000,7.493,4.184,1.179,57.768,30.597,9.181,0.233,-0.198,-0.159,-0.197,0.031,-0.102,0.040,-0.450,-0.755,2.499,0.025,2.459,-0.198,2.499,0.025
11.350,0.000,0.000,0.000,7.491,4.187,1.169,57.918,30.680,9.205,0.299,-0.077,-0.148,-0.191,0.025,-0.111,0.029,-0.447,-0.763,2.499,0.025,2.459,-0.198,2.499,0.025
11.380,0.000,0.000,0.000,7.484,4.196,1.153,58.225,30.852,9.252,0.346,-0.046,-0.128,-0.185,0.021,-0.117,0.015,-0.445,-0.794,2.499,0.025,2.459,-0.198,2.499,0.025
11.410,0.000,0.000,0.000,7.479,4.200,1.148,58.382,30.940,9.277,0.299,-0.178,-0.136,-0.179,0.017,-0.123,0.010,-0.446,-0.782,2.499,0.025,2.459,-0.198,2.499,0.025
11.439,0.000,0.000,0.000,7.466,4.205,1.137,58.666,31.100,9.320,0.162,-0.307,-0.194,-0.175,0.014,-0.127,0.004,-0.448,-0.769,2.499,0.025,2.459,-0.198,2.499,0.025
11.467,0.000,0.000,0.000,7.453,4.207,1.135,58.815,31.184,9.343,-0.590,0.434,0.162,-0.168,0.008,-0.134,0.010,-0.436,-0.755,2.499,0.025,2.459,-0.198,2.499,0.025
11.498,0.000,0.000,0.000,7.425,4.202,1.147,59.112,31.352,9.388,-0.841,0.368,1.123,-0.167,0.007,-0.136,0.059,-0.428,-0.708,2.499,0.025,2.459,-0.198,2.499,0.025
11.529,0.000,0.000,0.000,7.415,4.190,1.161,59.268,31.441,9.413,-0.323,-0.042,0.086,-0.169,0.005,-0.135,0.071,-0.429,-0.706,2.499,0.025,2.459,-0.198,2.499,0.025
11.558,0.000,0.000,0.000,7.398,4.164,1.187,59.557,31.603,9.458,-0.066,0.534,-0.083,-0.170,0.005,-0.134,0.084,-0.413,-0.689,2.499,0.025,2.459,-0.198,2.499,0.025
11.587,0.000,0.000,0.000,7.384,4.150,1.203,59.712,31.691,9.483,0.509,0.842,0.362,-0.172,0.009,-0.133,0.080,-0.385,-0.660,2.499,0.025,2.459,-0.198,2.499,0.025
11.617,0.000,0.000,0.000,7.357,4.128,1.224,60.000,31.852,9.531,0.475,0.481,0.448,-0.172,0.012,-0.131,0.058,-0.355,-0.674,2.499,0.025,2.459,-0.198,2.499,0.025
11.647,0.000,0.000,0.000,7.344,4.119,1.228,60.154,31.939,9.557,-0.117,-0.106,0.374,-0.169,0.020,-0.125,0.054,-0.353,-0.660,2.499,0.025,2.459,-0.198,2.499,0.025
11.678,0.000,0.000,0.000,7.322,4.105,1.223,60.440,32.099,9.604,-0.247,-0.099,0.419,-0.169,0.024,-0.122,0.054,-0.355,-0.678,2.499,0.025,2.459,-0.198,2.499,0.025
11.707,0.000,0.000,0.000,7.314,4.101,1.215,60.587,32.181,9.629,-0.075,0.048,0.560,-0.168,0.029,-0.113,0.052,-0.358,-0.667,2.499,0.025,2.459,-0.198,2.499,0.025
11.737,0.000,0.000,0.000,7.302,4.097,1.194,60.879,32.345,9.677,0.006,0.055,0.558,-0.169,0.031,-0.107,0.045,-0.360,-0.679,2.499,0.025,2.459,-0.198,2.499,0.025
11.767,0.000,0.000,0.000,7.299,4.098,1.181,61.025,32.427,9.701,-0.077,0.125,0.571,-0.169,0.035,-0.095,0.045,-0.358,-0.628,2.499,0.025,2.459,-0.198,2.499,0.025
11.797,0.000,0.000,0.000,7.299,4.100,1.155,61.317,32.591,9.747,-0.119,0.138,0.558,-0.170,0.038,-0.088,0.044,-0.359,-0.618,2.499,0.025,2.459,-0.198,2.499,0.025
11.827,0.000,0.000,0.000,7.302,4.102,1.145,61.463,32.673,9.770,0.040,0.100,0.353,-0.171,0.042,-0.074,0.044,-0.363,-0.580,2.499,0.025,2.459,-0.198,2.499,0.025
11.855,0.000,0.000,0.000,7.310,4.106,1.131,61.755,32.837,9.816,0.237,0.053,0.213,-0.171,0.044,-0.066,0.031,-0.361,-0.604,2.499,0.025,2.459,-0.198,2.499,0.025
11.883,0.000,0.000,0.000,7.315,4.111,1.125,61.923,32.932,9.842,0.398,-0.022,0.097,-0.170,0.048,-0.053,0.022,-0.361,-0.581,2.499,0.025,2.459,-0.198,2.499,0.025
11.911,0.000,0.000,0.000,7.324,4.121,1.117,62.194,33.084,9.883,0.324,-0.106,0.087,-0.168,0.050,-0.047,0.009,-0.364,-0.598,2.499,0.025,2.459,-0.198,2.499,0.025
11.940,0.000,0.000,0.000,7.330,4.127,1.114,62.341,33.167,9.906,0.204,-0.230,0.045,-0.166,0.051,-0.041,-0.002,-0.376,-0.598,2.499,0.025,2.459,-0.198,2.499,0.025
11.968,0.000,0.000,0.000,7.337,4.133,1.114,62.487,33.249,9.928,0.158,-0.250,-0.073,-0.161,0.051,-0.032,-0.005,-0.382,-0.578,2.499,0.025,2.459,-0.198,2.499,0.025
11.999,0.000,0.000,0.000,7.353,4.141,1.122,62.781,33.415,9.973,0.294,-0.198,-0.199,-0.159,0.051,-0.028,-0.013,-0.395,-0.580,2.499,0.025,2.459,-0.198,2.499,0.025
12.029,0.000,0.000,0.000,7.360,4.144,1.126,62.928,33.497,9.995,0.424,-0.432,-0.419,-0.153,0.048,-0.024,-0.015,-0.398,-0.583,2.499,0.025,2.459,-0.198,2.499,0.025
12.058,0.000,0.000,0.000,7.369,4.144,1.133,63.223,33.663,10.040,0.026,-0.133,-0.389,-0.149,0.046,-0.023,-0.013,-0.402,-0.584,2.499,0.025,2.459,-0.198,2.499,0.025
12.087,0.000,0.000,0.000,7.369,4.138,1.148,63.370,33.746,10.063,-0.715,1.027,0.487,-0.144,0.045,-0.022,-0.004,-0.388,-0.581,2.499,0.025,2.459,-0.198,2.499,0.025
12.118,0.000,0.000,0.000,7.370,4.112,1.197,63.665,33.911,10.110,0.035,-0.270,-0.193,-0.144,0.046,-0.021,0.030,-0.378,-0.551,2.499,0.025,2.459,-0.198,2.499,0.025
12.147,0.000,0.000,0.000,7.370,4.095,1.221,63.812,33.993,10.134,0.219,-0.159,-0.465,-0.142,0.047,-0.022,0.031,-0.379,-0.574,2.499,0.025,2.459,-0.198,2.499,0.025
12.175,0.000,0.000,0.000,7.367,4.060,1.260,64.107,34.156,10.184,0.015,0.205,-0.044,-0.141,0.047,-0.023,0.040,-0.380,-0.559,2.499,0.025,2.459,-0.198,2.499,0.025
12.205,0.000,0.000,0.000,7.366,4.039,1.279,64.269,34.245,10.212,-0.018,0.086,-0.200,-0.139,0.048,-0.026,0.041,-0.375,-0.551,2.499,0.025,2.459,-0.198,2.499,0.025
12.234,0.000,0.000,0.000,7.366,4.003,1.307,64.556,34.402,10.262,0.214,-0.078,-0.446,-0.138,0.048,-0.028,0.042,-0.374,-0.545,2.499,0.025,2.459,-0.198,2.499,0.025
12.263,0.000,0.000,0.000,7.365,3.988,1.315,64.696,34.478,10.287,0.408,-0.054,-0.436,-0.134,0.049,-0.034,0.032,-0.373,-0.567,2.499,0.025,2.459,-0.198,2.499,0.025
12.291,0.000,0.000,0.000,7.362,3.962,1.315,64.991,34.637,10.340,0.330,-0.010,-0.345,-0.131,0.049,-0.038,0.023,-0.373,-0.602,2.499,0.025,2.459,-0.198,2.499,0.025
12.320,0.000,0.000,0.000,7.361,3.952,1.309,65.138,34.716,10.366,0.211,0.018,-0.287,-0.129,0.049,-0.041,0.009,-0.371,-0.642,2.499,0.025,2.459,-0.198,2.499,0.025
12.351,0.000,0.000,0.000,7.360,3.943,1.301,65.300,34.803,10.395,0.176,0.119,-0.217,-0.123,0.050,-0.050,0.003,-0.368,-0.663,2.499,0.025,2.459,-0.198,2.499,0.025
12.380,0.000,0.000,0.000,7.356,3.930,1.282,65.587,34.957,10.445,0.244,0.082,-0.158,-0.118,0.050,-0.056,-0.012,-0.359,-0.696,2.499,0.025,2.459,-0.198,2.499,0.025
12.409,0.000,0.000,0.000,7.354,3.927,1.271,65.727,35.031,10.469,0.056,-0.117,0.060,-0.113,0.051,-0.062,-0.015,-0.360,-0.693,2.499,0.025,2.459,-0.198,2.499,0.025
12.439,0.000,0.000,0.000,7.350,3.923,1.244,66.021,35.188,10.520,-0.116,-0.130,0.134,-0.110,0.051,-0.065,-0.017,-0.367,-0.682,2.499,0.025,2.459,-0.198,2.499,0.025
12.469,0.000,0.000,0.000,7.350,3.922,1.230,66.175,35.271,10.546,-0.040,-0.089,0.029,-0.106,0.050,-0.070,-0.019,-0.371,-0.686,2.499,0.025,2.459,-0.198,2.499,0.025
12.500,0.000,0.000,0.000,7.352,3.923,1.205,66.462,35.424,10.593,0.100,-0.084,-0.033,-0.104,0.050,-0.071,-0.027,-0.376,-0.691,2.499,0.025,2.459,-0.198,2.499,0.025
12.531,0.000,0.000,0.000,7.353,3.926,1.191,66.624,35.510,10.619,0.109,0.013,-0.056,-0.101,0.049,-0.075,-0.029,-0.377,-0.709,2.499,0.025,2.459,-0.198,2.499,0.025
12.558,0.000,0.000,0.000,7.356,3.934,1.169,66.903,35.659,10.664,0.109,0.068,-0.093,-0.099,0.048,-0.077,-0.038,-0.376,-0.728,2.499,0.025,2.459,-0.198,2.499,0.025
12.585,0.000,0.000,0.000,7.357,3.940,1.161,67.050,35.738,10.688,0.233,0.181,-0.183,-0.095,0.048,-0.080,-0.043,-0.372,-0.752,2.499,0.025,2.459,-0.198,2.499,0.025
12.610,0.000,0.000,0.000,7.357,3.944,1.154,67.197,35.817,10.711,0.274,0.136,-0.238,-0.092,0.049,-0.082,-0.046,-0.368,-0.770,2.499,0.025,2.459,-0.198,2.499,0.025
12.637,0.000,0.000,0.000,7.350,3.952,1.146,67.492,35.975,10.757,0.142,0.291,-0.206,-0.089,0.050,-0.085,-0.051,-0.349,-0.791,2.499,0.025,2.459,-0.198,2.499,0.025
12.662,0.000,0.000,0.000,7.342,3.953,1.152,67.638,36.054,10.780,-0.198,0.743,0.136,-0.087,0.051,-0.087,-0.033,-0.332,-0.771,2.499,0.025,2.459,-0.198,2.499,0.025
12.688,0.000,0.000,0.000,7.334,3.949,1.166,67.785,36.133,10.803,-0.779,0.204,0.742,-0.085,0.058,-0.088,-0.022,-0.318,-0.779,2.499,0.025,2.459,-0.198,2.499,0.025
12.716,0.000,0.000,0.000,7.326,3.928,1.203,68.078,36.290,10.850,-0.728,-0.547,0.351,-0.087,0.061,-0.087,0.025,-0.336,-0.728,2.499,0.025,2.459,-0.198,2.499,0.025
12.741,0.000,0.000,0.000,7.323,3.914,1.220,68.225,36.369,10.875,-0.145,-0.468,-0.465,-0.089,0.063,-0.086,0.037,-0.339,-0.730,2.499,0.025,2.459,-0.198,2.499,0.025
12.767,0.000,0.000,0.000,7.317,3.901,1.234,68.371,36.447,10.899,0.189,0.665,0.099,-0.093,0.065,-0.085,0.038,-0.339,-0.742,2.499,0.025,2.459,-0.198,2.499,0.025
12.792,0.000,0.000,0.000,7.295,3.878,1.262,68.664,36.603,10.949,0.403,0.718,0.368,-0.094,0.068,-0.085,0.030,-0.302,-0.761,2.499,0.025,2.459,-0.198,2.499,0.025
12.819,0.000,0.000,0.000,7.285,3.865,1.273,68.809,36.680,10.974,0.413,0.291,0.545,-0.095,0.072,-0.083,0.028,-0.300,-0.773,2.499,0.025,2.459,-0.198,2.499,0.025
12.845,0.000,0.000,0.000,7.277,3.852,1.280,68.962,36.761,11.001,-0.177,-0.302,0.283,-0.094,0.078,-0.078,0.027,-0.303,-0.755,2.499,0.025,2.459,-0.198,2.499,0.025
12.871,0.000,0.000,0.000,7.271,3.841,1.281,69.100,36.834,11.025,-0.314,-0.189,0.199,-0.094,0.080,-0.074,0.032,-0.314,-0.753,2.499,0.025,2.459,-0.198,2.499,0.025
12.897,0.000,0.000,0.000,7.265,3.820,1.278,69.391,36.987,11.077,-0.178,-0.051,0.178,-0.094,0.081,-0.072,0.041,-0.321,-0.736,2.499,0.025,2.459,-0.198,2.499,0.025
12.923,0.000,0.000,0.000,7.263,3.811,1.271,69.536,37.064,11.102,0.164,0.029,0.116,-0.095,0.083,-0.066,0.042,-0.321,-0.753,2.499,0.025,2.459,-0.198,2.499,0.025
12.953,0.000,0.000,0.000,7.260,3.800,1.248,69.827,37.216,11.153,0.131,0.097,0.097,-0.095,0.084,-0.063,0.032,-0.316,-0.779,2.499,0.025,2.459,-0.198,2.499,0.025
12.980,0.000,0.000,0.000,7.257,3.797,1.233,69.972,37.292,11.177,0.053,0.123,0.121,-0.095,0.086,-0.060,0.024,-0.309,-0.791,2.499,0.025,2.459,-0.198,2.499,0.025
13.009,0.000,0.000,0.000,7.254,3.795,1.218,70.117,37.368,11.202,-0.081,0.037,0.208,-0.095,0.088,-0.054,0.027,-0.308,-0.792,2.499,0.025,2.459,-0.198,2.499,0.025
13.040,0.000,0.000,0.000,7.248,3.796,1.186,70.407,37.519,11.250,-0.114,0.024,0.231,-0.095,0.089,-0.051,0.027,-0.305,-0.781,2.499,0.025,2.459,-0.198,2.499,0.025
13.069,0.000,0.000,0.000,7.246,3.798,1.171,70.552,37.595,11.274,-0.116,0.064,0.238,-0.096,0.092,-0.044,0.022,-0.305,-0.769,2.499,0.025,2.459,-0.198,2.499,0.025
13.095,0.000,0.000,0.000,7.242,3.808,1.144,70.842,37.748,11.320,-0.084,0.037,0.235,-0.096,0.093,-0.040,0.018,-0.306,-0.763,2.499,0.025,2.459,-0.198,2.499,0.025
13.127,0.000,0.000,0.000,7.242,3.815,1.132,70.987,37.824,11.343,-0.072,-0.121,0.171,-0.098,0.095,-0.033,0.020,-0.307,-0.762,2.499,0.025,2.459,-0.198,2.499,0.025
13.155,0.000,0.000,0.000,7.246,3.833,1.115,71.277,37.977,11.387,-0.089,-0.156,0.138,-0.099,0.095,-0.030,0.015,-0.318,-0.753,2.499,0.025,2.459,-0.198,2.499,0.025
13.183,0.000,0.000,0.000,7.250,3.845,1.110,71.422,38.053,11.410,0.010,-0.126,0.038,-0.101,0.095,-0.023,0.008,-0.326,-0.784,2.499,0.025,2.459,-0.198,2.499,0.025
13.211,0.000,0.000,0.000,7.260,3.870,1.108,71.712,38.208,11.454,0.111,-0.106,-0.040,-0.101,0.094,-0.020,0.002,-0.335,-0.780,2.499,0.025,2.459,-0.198,2.499,0.025
13.240,0.000,0.000,0.000,7.266,3.883,1.111,71.857,38.285,11.476,0.182,-0.108,-0.081,-0.102,0.094,-0.017,0.001,-0.337,-0.784,2.499,0.025,2.459,-0.198,2.499,0.025
13.268,0.000,0.000,0.000,7.272,3.895,1.116,72.002,38.363,11.499,0.204,-0.358,-0.117,-0.101,0.092,-0.013,-0.002,-0.344,-0.793,2.499,0.025,2.459,-0.198,2.499,0.025
13.297,0.000,0.000,0.000,7.286,3.914,1.124,72.294,38.519,11.543,0.046,-0.519,-0.182,-0.101,0.089,-0.012,0.000,-0.363,-0.777,2.499,0.025,2.459,-0.198,2.499,0.025
13.327,0.000,0.000,0.000,7.293,3.920,1.130,72.439,38.598,11.566,-0.635,0.164,-0.109,-0.101,0.084,-0.011,0.008,-0.370,-0.767,2.499,0.025,2.459,-0.198,2.499,0.025
13.356,0.000,0.000,0.000,7.304,3.923,1.159,72.731,38.755,11.612,-0.509,0.353,0.062,-0.102,0.083,-0.011,0.043,-0.362,-0.739,2.499,0.025,2.459,-0.198,2.499,0.025
13.384,0.000,0.000,0.000,7.310,3.918,1.182,72.885,38.837,11.636,0.061,0.056,-0.264,-0.107,0.081,-0.011,0.054,-0.358,-0.749,2.499,0.025,2.459,-0.198,2.499,0.025
13.412,0.000,0.000,0.000,7.316,3.908,1.222,73.170,38.989,11.683,0.001,0.044,-0.068,-0.108,0.080,-0.012,0.061,-0.357,-0.754,2.499,0.025,2.459,-0.198,2.499,0.025
13.443,0.000,0.000,0.000,7.319,3.901,1.242,73.324,39.071,11.709,-0.313,-0.226,0.021,-0.112,0.078,-0.013,0.066,-0.358,-0.746,2.499,0.025,2.459,-0.198,2.499,0.025
13.471,0.000,0.000,0.000,7.323,3.893,1.258,73.477,39.153,11.735,-0.265,-0.294,-0.127,-0.115,0.077,-0.013,0.079,-0.367,-0.730,2.499,0.025,2.459,-0.198,2.499,0.025
13.498,0.000,0.000,0.000,7.332,3.878,1.280,73.756,39.301,11.783,-0.098,-0.217,-0.279,-0.117,0.075,-0.014,0.085,-0.378,-0.737,2.499,0.025,2.459,-0.198,2.499,0.025
13.528,0.000,0.000,0.000,7.336,3.873,1.285,73.902,39.378,11.809,0.230,0.051,-0.293,-0.122,0.072,-0.017,0.084,-0.379,-0.748,2.499,0.025,2.459,-0.198,2.499,0.025
13.557,0.000,0.000,0.000,7.346,3.865,1.283,74.196,39.533,11.860,0.177,0.130,-0.205,-0.123,0.071,-0.019,0.071,-0.377,-0.754,2.499,0.025,2.459,-0.198,2.499,0.025
13.586,0.000,0.000,0.000,7.351,3.864,1.277,74.343,39.611,11.886,0.028,0.162,-0.198,-0.124,0.069,-0.024,0.065,-0.376,-0.758,2.499,0.025,2.459,-0.198,2.499,0.025
13.611,0.000,0.000,0.000,7.360,3.864,1.263,74.637,39.765,11.937,0.103,0.206,-0.202,-0.125,0.069,-0.027,0.065,-0.373,-0.763,2.499,0.025,2.459,-0.198,2.499,0.025
13.637,0.000,0.000,0.000,7.364,3.866,1.257,74.785,39.842,11.962,0.206,0.231,-0.145,-0.125,0.069,-0.030,0.054,-0.363,-0.781,2.499,0.025,2.459,-0.198,2.499,0.025
13.662,0.000,0.000,0.000,7.368,3.870,1.250,74.939,39.924,11.988,0.249,0.205,-0.087,-0.124,0.070,-0.033,0.045,-0.360,-0.786,2.499,0.025,2.459,-0.198,2.499,0.025
13.687,0.000,0.000,0.000,7.371,3.873,1.244,75.079,39.997,12.012,0.156,0.054,-0.057,-0.123,0.072,-0.037,0.041,-0.357,-0.787,2.499,0.025,2.459,-0.198,2.499,0.025
13.715,0.000,0.000,0.000,7.379,3.883,1.236,75.374,40.152,12.062,0.105,-0.026,-0.098,-0.121,0.074,-0.040,0.032,-0.358,-0.802,2.499,0.025,2.459,-0.198,2.499,0.025
13.746,0.000,0.000,0.000,7.383,3.889,1.234,75.529,40.234,12.088,0.188,-0.103,-0.131,-0.119,0.075,-0.044,0.026,-0.361,-0.779,2.499,0.025,2.459,-0.198,2.499,0.025
13.774,0.000,0.000,0.000,7.392,3.903,1.231,75.817,40.386,12.136,0.302,-0.119,-0.187,-0.117,0.075,-0.047,0.010,-0.366,-0.791,2.499,0.025,2.459,-0.198,2.499,0.025
13.803,0.000,0.000,0.000,7.396,3.910,1.230,75.965,40.464,12.160,0.454,0.012,-0.299,-0.111,0.075,-0.052,0.003,-0.368,-0.800,2.499,0.025,2.459,-0.198,2.499,0.025
13.828,0.000,0.000,0.000,7.398,3.919,1.228,76.113,40.542,12.185,0.474,0.150,-0.338,-0.108,0.076,-0.055,-0.013,-0.363,-0.801,2.499,0.025,2.459,-0.198,2.499,0.025
13.857,0.000,0.000,0.000,7.398,3.937,1.224,76.409,40.699,12.234,0.485,0.183,-0.319,-0.104,0.076,-0.059,-0.034,-0.339,-0.811,2.499,0.025,2.459,-0.198,2.499,0.025
13.885,0.000,0.000,0.000,7.391,3.947,1.219,76.564,40.782,12.260,0.034,0.083,-0.038,-0.094,0.077,-0.066,-0.043,-0.337,-0.795,2.499,0.025,2.459,-0.198,2.499,0.025
13.915,0.000,0.000,0.000,7.373,3.959,1.219,76.852,40.936,12.307,-0.585,0.389,0.431,-0.091,0.078,-0.069,-0.027,-0.322,-0.782,2.499,0.025,2.459,-0.198,2.499,0.025
13.943,0.000,0.000,0.000,7.369,3.957,1.229,77.000,41.016,12.332,-1.235,-1.052,0.126,-0.090,0.081,-0.070,0.016,-0.331,-0.744,2.499,0.025,2.459,-0.198,2.499,0.025
13.972,0.000,0.000,0.000,7.369,3.938,1.252,77.294,41.173,12.381,-0.564,-1.037,-0.545,-0.092,0.080,-0.071,0.061,-0.371,-0.706,2.499,0.025,2.459,-0.198,2.499,0.025
13.999,0.000,0.000,0.000,7.367,3.927,1.260,77.442,41.252,12.406,-0.275,-0.056,-0.744,-0.096,0.078,-0.072,0.066,-0.372,-0.714,2.499,0.025,2.459,-0.198,2.499,0.025
14.029,0.000,0.000,0.000,7.360,3.917,1.270,77.589,41.331,12.432,0.638,1.096,0.109,-0.101,0.077,-0.077,0.062,-0.343,-0.716,2.499,0.025,2.459,-0.198,2.499,0.025
14.058,0.000,0.000,0.000,7.341,3.899,1.291,77.883,41.487,12.483,0.827,0.749,0.316,-0.101,0.079,-0.079,0.038,-0.307,-0.746,2.499,0.025,2.459,-0.198,2.499,0.025
14.087,0.000,0.000,0.000,7.332,3.888,1.298,78.045,41.572,12.511,0.209,-0.304,-0.160,-0.098,0.085,-0.082,0.024,-0.304,-0.754,2.499,0.025,2.459,-0.198,2.499,0.025
14.117,0.000,0.000,0.000,7.320,3.872,1.296,78.323,41.720,12.561,-0.108,-0.363,-0.351,-0.096,0.087,-0.083,0.018,-0.315,-0.746,2.499,0.025,2.459,-0.198,2.499,0.025
14.147,0.000,0.000,0.000,7.313,3.868,1.290,78.469,41.797,12.586,0.070,-0.139,-0.040,-0.093,0.089,-0.087,0.012,-0.312,-0.761,2.499,0.025,2.459,-0.198,2.499,0.025
14.177,0.000,0.000,0.000,7.300,3.862,1.270,78.761,41.952,12.638,0.221,-0.034,0.195,-0.092,0.089,-0.089,0.004,-0.317,-0.768,2.499,0.025,2.459,-0.198,2.499,0.025
14.207,0.000,0.000,0.000,7.295,3.860,1.256,78.907,42.029,12.663,0.043,0.092,0.235,-0.089,0.090,-0.090,-0.001,-0.315,-0.775,2.499,0.025,2.459,-0.198,2.499,0.025
14.236,0.000,0.000,0.000,7.290,3.854,1.224,79.199,42.183,12.713,-0.070,0.075,0.148,-0.087,0.090,-0.090,0.000,-0.315,-0.760,2.499,0.025,2.459,-0.198,2.499,0.025
14.265,0.000,0.000,0.000,7.289,3.851,1.210,79.345,42.260,12.737,-0.013,0.128,0.046,-0.085,0.092,-0.090,0.002,-0.314,-0.724,2.499,0.025,2.459,-0.198,2.499,0.025
14.294,0.000,0.000,0.000,7.287,3.847,1.185,79.636,42.414,12.785,0.095,0.145,0.011,-0.084,0.093,-0.090,-0.003,-0.308,-0.727,2.499,0.025,2.459,-0.198,2.499,0.025
14.322,0.000,0.000,0.000,7.285,3.846,1.174,79.782,42.491,12.808,0.191,0.049,-0.112,-0.081,0.095,-0.089,-0.008,-0.305,-0.718,2.499,0.025,2.459,-0.198,2.499,0.025
14.351,0.000,0.000,0.000,7.281,3.850,1.156,80.073,42.645,12.855,0.166,-0.028,-0.088,-0.080,0.096,-0.089,-0.023,-0.302,-0.721,2.499,0.025,2.459,-0.198,2.499,0.025
14.381,0.000,0.000,0.000,7.279,3.854,1.148,80.226,42.726,12.879,0.147,-0.103,-0.061,-0.077,0.097,-0.090,-0.033,-0.304,-0.724,2.499,0.025,2.459,-0.198,2.499,0.025
14.410,0.000,0.000,0.000,7.277,3.859,1.141,80.372,42.803,12.902,0.165,-0.181,-0.123,-0.074,0.098,-0.091,-0.037,-0.307,-0.724,2.499,0.025,2.459,-0.198,2.499,0.025
14.439,0.000,0.000,0.000,7.274,3.871,1.130,80.656,42.954,12.946,0.200,-0.192,-0.122,-0.072,0.098,-0.091,-0.049,-0.314,-0.734,2.499,0.025,2.459,-0.198,2.499,0.025
14.468,0.000,0.000,0.000,7.274,3.877,1.126,80.801,43.032,12.969,0.093,-0.335,-0.138,-0.067,0.096,-0.093,-0.049,-0.317,-0.734,2.499,0.025,2.459,-0.198,2.499,0.025
14.498,0.000,0.000,0.000,7.268,3.884,1.120,81.092,43.187,13.014,-0.145,-0.010,-0.089,-0.065,0.094,-0.095,-0.041,-0.320,-0.729,2.499,0.025,2.459,-0.198,2.499,0.025
14.528,0.000,0.000,0.000,7.263,3.883,1.130,81.237,43.264,13.036,-0.551,1.051,0.662,-0.063,0.094,-0.096,-0.034,-0.306,-0.727,2.499,0.025,2.459,-0.198,2.499,0.025
14.557,0.000,0.000,0.000,7.254,3.867,1.172,81.528,43.419,13.082,-0.393,0.676,0.787,-0.064,0.097,-0.094,-0.001,-0.281,-0.704,2.499,0.025,2.459,-0.198,2.499,0.025
14.586,0.000,0.000,0.000,7.252,3.855,1.197,81.673,43.497,13.106,-0.095,-0.332,-0.087,-0.066,0.102,-0.091,0.006,-0.287,-0.700,2.499,0.025,2.459,-0.198,2.499,0.025
14.615,0.000,0.000,0.000,7.248,3.830,1.241,81.963,43.650,13.155,-0.231,-0.298,0.171,-0.068,0.103,-0.090,0.021,-0.306,-0.672,2.499,0.025,2.459,-0.198,2.499,0.025
14.644,0.000,0.000,0.000,7.249,3.816,1.259,82.115,43.731,13.181,-0.266,-0.199,0.011,-0.071,0.104,-0.086,0.026,-0.311,-0.635,2.499,0.025,2.459,-0.198,2.499,0.025
14.672,0.000,0.000,0.000,7.254,3.789,1.284,82.398,43.879,13.231,-0.072,-0.021,-0.106,-0.074,0.104,-0.085,0.036,-0.317,-0.616,2.499,0.025,2.459,-0.198,2.499,0.025
14.702,0.000,0.000,0.000,7.256,3.777,1.293,82.543,43.955,13.256,0.181,0.050,0.049,-0.077,0.103,-0.083,0.034,-0.316,-0.634,2.499,0.025,2.459,-0.198,2.499,0.025
14.731,0.000,0.000,0.000,7.260,3.764,1.299,82.702,44.038,13.285,0.024,-0.155,0.088,-0.078,0.103,-0.082,0.029,-0.315,-0.640,2.499,0.025,2.459,-0.198,2.499,0.025
14.760,0.000,0.000,0.000,7.270,3.744,1.299,82.979,44.180,13.334,-0.194,-0.341,0.024,-0.079,0.103,-0.081,0.034,-0.334,-0.638,2.499,0.025,2.459,-0.198,2.499,0.025
14.789,0.000,0.000,0.000,7.278,3.735,1.294,83.124,44.255,13.360,-0.171,-0.098,-0.162,-0.083,0.100,-0.079,0.036,-0.344,-0.623,2.499,0.025,2.459,-0.198,2.499,0.025
14.820,0.000,0.000,0.000,7.294,3.723,1.280,83.415,44.404,13.412,0.134,0.073,-0.160,-0.084,0.099,-0.079,0.026,-0.344,-0.626,2.499,0.025,2.459,-0.198,2.499,0.025
14.849,0.000,0.000,0.000,7.302,3.720,1.269,83.561,44.479,13.437,0.283,0.137,0.045,-0.086,0.097,-0.079,0.018,-0.341,-0.630,2.499,0.025,2.459,-0.198,2.499,0.025
14.877,0.000,0.000,0.000,7.321,3.718,1.244,83.868,44.635,13.490,0.083,0.070,0.051,-0.086,0.096,-0.079,0.004,-0.343,-0.632,2.499,0.025,2.459,-0.198,2.499,0.025
14.908,0.000,0.000,0.000,7.330,3.718,1.233,84.000,44.702,13.512,-0.071,0.004,-0.136,-0.086,0.096,-0.079,0.002,-0.348,-0.619,2.499,0.025,2.459,-0.198,2.499,0.025
14.937,0.000,0.000,0.000,7.352,3.722,1.213,84.294,44.851,13.561,0.061,0.021,-0.180,-0.086,0.096,-0.080,-0.004,-0.351,-0.634,2.499,0.025,2.459,-0.198,2.499,0.025
14.966,0.000,0.000,0.000,7.363,3.725,1.207,84.441,44.925,13.585,0.183,0.015,-0.258,-0.086,0.096,-0.082,-0.008,-0.349,-0.631,2.499,0.025,2.459,-0.198,2.499,0.025
14.995,0.000,0.000,0.000,7.384,3.733,1.198,84.736,45.074,13.633,0.198,-0.049,-0.327,-0.085,0.096,-0.083,-0.020,-0.353,-0.618,2.499,0.025,2.459,-0.198,2.499,0.025
15.023,0.000,0.000,0.000,7.393,3.740,1.196,84.899,45.156,13.660,0.226,-0.119,-0.505,-0.082,0.095,-0.088,-0.033,-0.349,-0.633,2.499,0.025,2.459,-0.198,2.499,0.025
15.052,0.000,0.000,0.000,7.402,3.754,1.197,85.180,45.299,13.705,0.178,-0.132,-0.390,-0.081,0.095,-0.092,-0.041,-0.346,-0.660,2.499,0.025,2.459,-0.198,2.499,0.025
15.080,0.000,0.000,0.000,7.403,3.760,1.200,85.328,45.374,13.729,0.018,-0.148,-0.026,-0.079,0.094,-0.096,-0.042,-0.349,-0.665,2.499,0.025,2.459,-0.198,2.499,0.025
15.109,0.000,0.000,0.000,7.403,3.762,1.209,85.476,45.449,13.753,-0.685,0.516,0.704,-0.077,0.093,-0.101,-0.021,-0.349,-0.652,2.499,0.025,2.459,-0.198,2.499,0.025
15.139,0.000,0.000,0.000,7.404,3.751,1.254,85.772,45.599,13.802,-0.793,0.562,0.831,-0.078,0.094,-0.100,0.024,-0.338,-0.607,2.499,0.025,2.459,-0.198,2.499,0.025
15.168,0.000,0.000,0.000,7.408,3.737,1.284,85.920,45.674,13.828,-0.123,-1.030,-0.038,-0.084,0.096,-0.097,0.031,-0.341,-0.572,2.499,0.025,2.459,-0.198,2.499,0.025
15.197,0.000,0.000,0.000,7.417,3.705,1.329,86.217,45.823,13.880,0.011,-0.771,-0.834,-0.086,0.094,-0.096,0.045,-0.378,-0.557,2.499,0.025,2.459,-0.198,2.499,0.025
15.226,0.000,0.000,0.000,7.418,3.690,1.343,86.365,45.897,13.907,0.435,0.413,-0.367,-0.090,0.090,-0.098,0.048,-0.364,-0.568,2.499,0.025,2.459,-0.198,2.499,0.025
15.257,0.000,0.000,0.000,7.408,3.660,1.366,86.662,46.044,13.961,0.621,0.432,-0.198,-0.090,0.089,-0.100,0.032,-0.335,-0.580,2.499,0.025,2.459,-0.198,2.499,0.025
15.285,0.000,0.000,0.000,7.400,3.645,1.372,86.810,46.117,13.988,0.330,-0.188,-0.064,-0.088,0.089,-0.104,0.017,-0.332,-0.568,2.499,0.025,2.459,-0.198,2.499,0.025
15.313,0.000,0.000,0.000,7.383,3.617,1.370,87.105,46.262,14.043,-0.009,-0.364,-0.116,-0.086,0.088,-0.106,0.014,-0.338,-0.558,2.499,0.025,2.459,-0.198,2.499,0.025
15.342,0.000,0.000,0.000,7.376,3.603,1.362,87.260,46.338,14.072,-0.099,-0.148,-0.081,-0.083,0.085,-0.110,0.019,-0.342,-0.558,2.499,0.025,2.459,-0.198,2.499,0.025
15.372,0.000,0.000,0.000,7.369,3.590,1.352,87.408,46.410,14.099,0.071,0.028,-0.039,-0.081,0.083,-0.112,0.019,-0.345,-0.562,2.499,0.025,2.459,-0.198,2.499,0.025
15.399,0.000,0.000,0.000,7.356,3.569,1.327,87.695,46.550,14.151,0.162,0.138,-0.001,-0.081,0.082,-0.113,0.013,-0.339,-0.555,2.499,0.025,2.459,-0.198,2.499,0.025
15.428,0.000,0.000,0.000,7.349,3.559,1.312,87.842,46.621,14.178,0.000,0.200,0.099,-0.078,0.081,-0.116,0.011,-0.332,-0.558,2.499,0.025,2.459,-0.198,2.499,0.025
15.457,0.000,0.000,0.000,7.336,3.541,1.281,88.136,46.763,14.230,-0.094,0.166,0.148,-0.077,0.081,-0.117,0.012,-0.325,-0.554,2.499,0.025,2.459,-0.198,2.499,0.025
15.486,0.000,0.000,0.000,7.331,3.532,1.267,88.290,46.837,14.256,-0.020,-0.029,0.093,-0.076,0.082,-0.118,0.012,-0.323,-0.580,2.499,0.025,2.459,-0.198,2.499,0.025
15.514,0.000,0.000,0.000,7.323,3.520,1.241,88.575,46.975,14.305,0.103,-0.098,-0.007,-0.075,0.082,-0.118,0.006,-0.327,-0.583,2.499,0.025,2.459,-0.198,2.499,0.025
15.546,0.000,0.000,0.000,7.320,3.516,1.226,88.722,47.045,14.330,0.211,0.034,-0.023,-0.073,0.082,-0.118,-0.008,-0.327,-0.590,2.499,0.025,2.459,-0.198,2.499,0.025
15.575,0.000,0.000,0.000,7.314,3.515,1.194,89.014,47.186,14.378,0.186,0.112,0.028,-0.072,0.082,-0.118,-0.026,-0.321,-0.603,2.499,0.025,2.459,-0.198,2.499,0.025
15.603,0.000,0.000,0.000,7.310,3.518,1.180,89.161,47.256,14.402,0.110,0.101,0.158,-0.068,0.083,-0.118,-0.030,-0.318,-0.580,2.499,0.025,2.459,-0.198,2.499,0.025
15.631,0.000,0.000,0.000,7.306,3.522,1.169,89.307,47.326,14.426,-0.050,-0.065,0.244,-0.067,0.084,-0.118,-0.038,-0.316,-0.572,2.499,0.025,2.459,-0.198,2.499,0.025
15.660,0.000,0.000,0.000,7.301,3.531,1.156,89.599,47.467,14.472,-0.326,-0.357,0.351,-0.065,0.084,-0.117,-0.028,-0.336,-0.565,2.499,0.025,2.459,-0.198,2.499,0.025
15.689,0.000,0.000,0.000,7.304,3.533,1.158,89.745,47.538,14.495,-0.468,-0.524,0.007,-0.066,0.082,-0.113,-0.019,-0.347,-0.553,2.499,0.025,2.459,-0.198,2.499,0.025
15.718,0.000,0.000,0.000,7.311,3.540,1.172,90.037,47.680,14.542,0.011,-0.415,-0.282,-0.067,0.079,-0.112,-0.014,-0.368,-0.552,2.499,0.025,2.459,-0.198,2.499,0.025
15.746,0.000,0.000,0.000,7.313,3.545,1.178,90.184,47.750,14.565,0.626,-0.420,-0.216,-0.068,0.073,-0.111,-0.027,-0.372,-0.560,2.499,0.025,2.459,-0.198,2.499,0.025
15.776,0.000,0.000,0.000,7.316,3.552,1.182,90.476,47.892,14.613,0.258,-0.368,-0.112,-0.066,0.068,-0.111,-0.039,-0.385,-0.564,2.499,0.025,2.459,-0.198,2.499,0.025
15.806,0.000,0.000,0.000,7.317,3.553,1.188,90.622,47.963,14.636,-0.722,0.404,0.411,-0.065,0.061,-0.112,-0.033,-0.386,-0.574,2.499,0.025,2.459,-0.198,2.499,0.025
15.834,0.000,0.000,0.000,7.319,3.541,1.216,90.922,48.109,14.685,-0.367,0.127,0.192,-0.066,0.059,-0.111,0.004,-0.380,-0.560,2.499,0.025,2.459,-0.198,2.499,0.025
15.863,0.000,0.000,0.000,7.321,3.530,1.233,91.076,48.183,14.711,0.009,-0.108,-0.154,-0.068,0.057,-0.110,0.011,-0.379,-0.563,2.499,0.025,2.459,-0.198,2.499,0.025
15.891,0.000,0.000,0.000,7.324,3.509,1.257,91.354,48.317,14.759,-0.088,0.010,0.175,-0.070,0.053,-0.110,0.008,-0.381,-0.565,2.499,0.025,2.459,-0.198,2.499,0.025
15.920,0.000,0.000,0.000,7.329,3.495,1.267,91.501,48.387,14.784,-0.343,0.012,0.291,-0.071,0.051,-0.109,0.028,-0.387,-0.537,2.499,0.025,2.459,-0.198,2.499,0.025
15.949,0.000,0.000,0.000,7.334,3.480,1.277,91.648,48.457,14.809,-0.177,0.002,-0.115,-0.075,0.048,-0.107,0.046,-0.392,-0.513,2.499,0.025,2.459,-0.198,2.499,0.025
15.977,0.000,0.000,0.000,7.346,3.450,1.291,91.941,48.595,14.861,0.145,0.087,-0.206,-0.077,0.046,-0.106,0.048,-0.391,-0.507,2.499,0.025,2.459,-0.198,2.499,0.025
16.004,0.000,0.000,0.000,7.352,3.436,1.293,92.088,48.664,14.886,0.298,0.214,-0.108,-0.079,0.045,-0.106,0.040,-0.387,-0.504,2.499,0.025,2.459,-0.198,2.499,0.025
16.030,0.000,0.000,0.000,7.358,3.423,1.292,92.235,48.733,14.912,0.173,0.198,-0.151,-0.079,0.045,-0.107,0.037,-0.389,-0.498,2.499,0.025,2.459,-0.198,2.499,0.025
16.056,0.000,0.000,0.000,7.374,3.400,1.281,92.530,48.869,14.964,0.099,0.216,-0.205,-0.079,0.046,-0.107,0.027,-0.384,-0.514,2.499,0.025,2.459,-0.198,2.499,0.025
16.082,0.000,0.000,0.000,7.381,3.391,1.272,92.677,48.937,14.989,0.220,0.481,-0.125,-0.078,0.049,-0.110,0.023,-0.377,-0.534,2.499,0.025,2.459,-0.198,2.499,0.025
16.108,0.000,0.000,0.000,7.389,3.384,1.264,92.825,49.005,15.015,0.275,0.505,-0.048,-0.077,0.051,-0.111,0.015,-0.368,-0.530,2.499,0.025,2.459,-0.198,2.499,0.025
16.134,0.000,0.000,0.000,7.402,3.375,1.249,93.121,49.140,15.065,0.244,0.385,0.027,-0.075,0.054,-0.112,-0.001,-0.352,-0.549,2.499,0.025,2.459,-0.198,2.499,0.025
16.161,0.000,0.000,0.000,7.409,3.372,1.242,93.269,49.208,15.090,0.116,0.188,0.093,-0.074,0.058,-0.113,-0.004,-0.348,-0.547,2.499,0.025,2.459,-0.198,2.499,0.025
16.187,0.000,0.000,0.000,7.417,3.371,1.236,93.417,49.275,15.115,-0.117,-0.199,0.072,-0.071,0.064,-0.114,-0.008,-0.356,-0.548,2.499,0.025,2.459,-0.198,2.499,0.025
16.215,0.000,0.000,0.000,7.436,3.371,1.223,93.714,49.410,15.164,-0.094,-0.224,0.018,-0.070,0.066,-0.114,-0.012,-0.370,-0.558,2.499,0.025,2.459,-0.198,2.499,0.025
16.244,0.000,0.000,0.000,7.447,3.373,1.216,93.863,49.477,15.188,0.184,-0.027,-0.133,-0.068,0.068,-0.115,-0.013,-0.373,-0.555,2.499,0.025,2.459,-0.198,2.499,0.025
16.272,0.000,0.000,0.000,7.467,3.384,1.200,94.162,49.612,15.236,0.314,0.077,-0.176,-0.067,0.069,-0.116,-0.034,-0.373,-0.563,2.499,0.025,2.459,-0.198,2.499,0.025
16.299,0.000,0.000,0.000,7.476,3.392,1.192,94.318,49.683,15.262,0.349,0.145,-0.194,-0.065,0.070,-0.117,-0.048,-0.368,-0.583,2.499,0.025,2.459,-0.198,2.499,0.025
16.331,0.000,0.000,0.000,7.483,3.400,1.186,94.475,49.755,15.287,0.296,0.288,-0.154,-0.060,0.074,-0.120,-0.054,-0.363,-0.584,2.499,0.025,2.459,-0.198,2.499,0.025
16.358,0.000,0.000,0.000,7.494,3.415,1.184,94.760,49.884,15.332,0.301,0.246,-0.165,-0.057,0.076,-0.121,-0.066,-0.352,-0.595,2.499,0.025,2.459,-0.198,2.499,0.025
16.384,0.000,0.000,0.000,7.498,3.424,1.186,94.925,49.960,15.358,0.290,-0.153,-0.269,-0.050,0.080,-0.125,-0.078,-0.345,-0.607,2.499,0.025,2.459,-0.198,2.499,0.025
16.409,0.000,0.000,0.000,7.499,3.432,1.186,95.060,50.021,15.379,0.075,-0.323,-0.177,-0.046,0.081,-0.127,-0.083,-0.347,-0.615,2.499,0.025,2.459,-0.198,2.499,0.025
16.436,0.000,0.000,0.000,7.490,3.447,1.186,95.367,50.162,15.428,-1.126,0.457,0.903,-0.044,0.083,-0.129,-0.065,-0.333,-0.609,2.499,0.025,2.459,-0.198,2.499,0.025
16.463,0.000,0.000,0.000,7.485,3.446,1.196,95.510,50.228,15.450,-1.530,-0.783,1.080,-0.048,0.086,-0.125,-0.014,-0.338,-0.575,2.499,0.025,2.459,-0.198,2.499,0.025
16.489,0.000,0.000,0.000,7.483,3.439,1.213,95.659,50.297,15.474,-1.192,-1.666,0.197,-0.054,0.084,-0.121,0.014,-0.356,-0.555,2.499,0.025,2.459,-0.198,2.499,0.025
16.515,0.000,0.000,0.000,7.485,3.416,1.240,95.959,50.434,15.523,-0.894,-1.808,-0.294,-0.061,0.079,-0.117,0.074,-0.428,-0.526,2.499,0.025,2.459,-0.198,2.499,0.025
16.541,0.000,0.000,0.000,7.484,3.403,1.247,96.108,50.502,15.548,-0.694,-0.930,-0.321,-0.070,0.072,-0.114,0.092,-0.439,-0.518,2.499,0.025,2.459,-0.198,2.499,0.025
16.567,0.000,0.000,0.000,7.480,3.391,1.254,96.258,50.570,15.573,0.363,0.896,0.188,-0.086,0.059,-0.110,0.097,-0.434,-0.533,2.499,0.025,2.459,-0.198,2.499,0.025
16.593,0.000,0.000,0.000,7.468,3.368,1.273,96.557,50.705,15.624,0.944,0.827,0.325,-0.092,0.056,-0.108,0.074,-0.393,-0.549,2.499,0.025,2.459,-0.198,2.499,0.025
16.621,0.000,0.000,0.000,7.463,3.356,1.278,96.706,50.772,15.649,1.128,0.353,0.283,-0.095,0.055,-0.105,0.060,-0.388,-0.548,2.499,0.025,2.459,-0.198,2.499,0.025
16.651,0.000,0.000,0.000,7.459,3.344,1.278,96.870,50.846,15.677,0.406,-0.089,-0.054,-0.095,0.053,-0.100,0.043,-0.389,-0.545,2.499,0.025,2.459,-0.198,2.499,0.025
16.679,0.000,0.000,0.000,7.455,3.324,1.266,97.161,50.976,15.727,0.021,0.076,-0.046,-0.094,0.052,-0.098,0.035,-0.390,-0.532,2.499,0.025,2.459,-0.198,2.499,0.025
16.709,0.000,0.000,0.000,7.454,3.315,1.257,97.310,51.042,15.752,0.161,0.293,-0.010,-0.092,0.051,-0.094,0.038,-0.387,-0.514,2.499,0.025,2.459,-0.198,2.499,0.025
16.738,0.000,0.000,0.000,7.455,3.298,1.240,97.601,51.171,15.801,0.330,0.224,-0.122,-0.091,0.051,-0.093,0.027,-0.380,-0.527,2.499,0.025,2.459,-0.198,2.499,0.025
16.767,0.000,0.000,0.000,7.456,3.291,1.228,97.750,51.237,15.826,0.211,0.279,-0.263,-0.087,0.054,-0.091,0.021,-0.375,-0.523,2.499,0.025,2.459,-0.198,2.499,0.025
16.795,0.000,0.000,0.000,7.459,3.281,1.205,98.048,51.369,15.874,0.192,0.378,-0.265,-0.084,0.056,-0.091,0.010,-0.361,-0.535,2.499,0.025,2.459,-0.198,2.499,0.025
16.823,0.000,0.000,0.000,7.459,3.278,1.194,98.198,51.434,15.898,0.389,0.315,-0.222,-0.079,0.061,-0.093,-0.003,-0.351,-0.559,2.499,0.025,2.459,-0.198,2.499,0.025
16.852,0.000,0.000,0.000,7.459,3.279,1.171,98.496,51.565,15.946,0.376,0.183,-0.194,-0.075,0.064,-0.095,-0.026,-0.340,-0.588,2.499,0.025,2.459,-0.198,2.499,0.025
16.881,0.000,0.000,0.000,7.459,3.282,1.158,98.653,51.634,15.970,0.259,0.094,-0.154,-0.070,0.068,-0.097,-0.031,-0.337,-0.592,2.499,0.025,2.459,-0.198,2.499,0.025
16.910,0.000,0.000,0.000,7.459,3.286,1.148,98.794,51.697,15.992,0.054,0.105,-0.081,-0.064,0.073,-0.100,-0.040,-0.337,-0.594,2.499,0.025,2.459,-0.198,2.499,0.025
16.939,0.000,0.000,0.000,7.460,3.298,1.133,99.093,51.828,16.038,0.094,0.077,-0.073,-0.061,0.076,-0.101,-0.049,-0.335,-0.596,2.499,0.025,2.459,-0.198,2.499,0.025
16.970,0.000,0.000,0.000,7.462,3.307,1.130,99.249,51.898,16.061,0.194,-0.130,-0.175,-0.054,0.081,-0.105,-0.051,-0.335,-0.601,2.499,0.025,2.459,-0.198,2.499,0.025
16.998,0.000,0.000,0.000,7.466,3.325,1.130,99.540,52.027,16.105,0.221,-0.204,-0.257,-0.050,0.082,-0.107,-0.064,-0.345,-0.610,2.499,0.025,2.459,-0.198,2.499,0.025
17.027,0.000,0.000,0.000,7.469,3.335,1.133,99.690,52.094,16.128,0.353,-0.260,-0.397,-0.043,0.084,-0.112,-0.072,-0.348,-0.628,2.499,0.025,2.459,-0.198,2.499,0.025
17.056,0.000,0.000,0.000,7.472,3.353,1.141,99.989,52.227,16.174,0.208,-0.461,-0.384,-0.039,0.084,-0.115,-0.078,-0.354,-0.637,2.499,0.025,2.459,-0.198,2.499,0.025
17.086,0.000,0.000,0.000,7.471,3.360,1.145,100.138,52.295,16.196,-0.500,0.654,0.173,-0.033,0.083,-0.123,-0.074,-0.353,-0.662,2.499,0.025,2.459,-0.198,2.499,0.025
17.114,0.000,0.000,0.000,7.465,3.361,1.168,100.437,52.429,16.243,-0.503,0.781,0.500,-0.031,0.084,-0.125,-0.037,-0.327,-0.649,2.499,0.025,2.459,-0.198,2.499,0.025
17.143,0.000,0.000,0.000,7.464,3.352,1.188,100.586,52.496,16.266,-0.048,0.082,-0.115,-0.031,0.089,-0.127,-0.014,-0.321,-0.630,2.499,0.025,2.459,-0.198,2.499,0.025
17.173,0.000,0.000,0.000,7.459,3.329,1.229,100.884,52.630,16.314,0.039,-0.038,-0.275,-0.031,0.092,-0.128,-0.003,-0.317,-0.616,2.499,0.025,2.459,-0.198,2.499,0.025
17.200,0.000,0.000,0.000,7.456,3.315,1.248,101.034,52.696,16.339,-0.045,-0.068,-0.083,-0.031,0.094,-0.130,-0.002,-0.318,-0.606,2.499,0.025,2.459,-0.198,2.499,0.025
17.226,0.000,0.000,0.000,7.455,3.300,1.264,101.190,52.766,16.366,-0.226,-0.266,-0.057,-0.032,0.097,-0.132,0.015,-0.326,-0.609,2.499,0.025,2.459,-0.198,2.499,0.025
17.254,0.000,0.000,0.000,7.455,3.270,1.286,101.481,52.894,16.415,-0.123,-0.265,-0.239,-0.032,0.098,-0.134,0.025,-0.335,-0.611,2.499,0.025,2.459,-0.198,2.499,0.025
17.280,0.000,0.000,0.000,7.455,3.255,1.292,101.630,52.959,16.441,0.043,-0.120,-0.285,-0.033,0.098,-0.136,0.025,-0.337,-0.620,2.499,0.025,2.459,-0.198,2.499,0.025
17.306,0.000,0.000,0.000,7.455,3.242,1.294,101.779,53.024,16.467,0.159,0.038,-0.068,-0.034,0.098,-0.139,0.024,-0.337,-0.633,2.499,0.025,2.459,-0.198,2.499,0.025
17.332,0.000,0.000,0.000,7.457,3.219,1.291,102.077,53.153,16.519,0.090,-0.022,-0.101,-0.034,0.098,-0.141,0.018,-0.336,-0.636,2.499,0.025,2.459,-0.198,2.499,0.025
17.358,0.000,0.000,0.000,7.458,3.210,1.285,102.226,53.217,16.544,0.088,-0.045,-0.164,-0.034,0.098,-0.144,0.017,-0.337,-0.637,2.499,0.025,2.459,-0.198,2.499,0.025
17.385,0.000,0.000,0.000,7.459,3.202,1.277,102.383,53.285,16.571,0.279,0.105,-0.049,-0.033,0.098,-0.148,0.008,-0.332,-0.630,2.499,0.025,2.459,-0.198,2.499,0.025
17.410,0.000,0.000,0.000,7.459,3.196,1.268,102.525,53.346,16.596,0.281,0.108,0.064,-0.031,0.098,-0.150,0.003,-0.330,-0.636,2.499,0.025,2.459,-0.198,2.499,0.025
17.440,0.000,0.000,0.000,7.457,3.188,1.245,102.823,53.473,16.646,0.156,0.026,0.170,-0.030,0.098,-0.151,-0.011,-0.326,-0.653,2.499,0.025,2.459,-0.198,2.499,0.025
17.468,0.000,0.000,0.000,7.458,3.186,1.232,102.972,53.537,16.671,-0.132,-0.153,0.200,-0.027,0.099,-0.153,-0.017,-0.332,-0.654,2.499,0.025,2.459,-0.198,2.499,0.025
17.497,0.000,0.000,0.000,7.463,3.188,1.209,103.271,53.664,16.719,-0.076,-0.125,0.136,-0.026,0.098,-0.153,-0.024,-0.341,-0.667,2.499,0.025,2.459,-0.198,2.499,0.025
17.526,0.000,0.000,0.000,7.466,3.192,1.197,103.420,53.728,16.743,0.183,-0.042,0.133,-0.024,0.097,-0.152,-0.025,-0.342,-0.633,2.499,0.025,2.459,-0.198,2.499,0.025
17.556,0.000,0.000,0.000,7.475,3.206,1.174,103.719,53.856,16.791,0.167,-0.075,0.110,-0.022,0.097,-0.152,-0.043,-0.350,-0.650,2.499,0.025,2.459,-0.198,2.499,0.025
17.586,0.000,0.000,0.000,7.481,3.215,1.165,103.868,53.920,16.814,0.131,-0.017,-0.004,-0.019,0.096,-0.150,-0.052,-0.356,-0.643,2.499,0.025,2.459,-0.198,2.499,0.025
17.615,0.000,0.000,0.000,7.495,3.234,1.152,104.168,54.049,16.861,0.214,0.031,-0.090,-0.018,0.095,-0.150,-0.062,-0.356,-0.671,2.499,0.025,2.459,-0.198,2.499,0.025
17.643,0.000,0.000,0.000,7.501,3.245,1.148,104.333,54.121,16.886,0.250,0.010,-0.198,-0.013,0.094,-0.150,-0.066,-0.355,-0.675,2.499,0.025,2.459,-0.198,2.499,0.025
17.672,0.000,0.000,0.000,7.507,3.260,1.144,104.618,54.244,16.929,-0.077,0.024,-0.178,-0.011,0.094,-0.150,-0.065,-0.348,-0.673,2.499,0.025,2.459,-0.198,2.499,0.025
17.700,0.000,0.000,0.000,7.503,3.266,1.146,104.768,54.310,16.952,-0.402,0.431,0.043,-0.009,0.094,-0.151,-0.052,-0.330,-0.662,2.499,0.025,2.459,-0.198,2.499,0.025
17.729,0.000,0.000,0.000,7.498,3.269,1.155,104.918,54.375,16.975,-0.720,0.099,0.821,-0.010,0.097,-0.150,-0.040,-0.320,-0.644,2.499,0.025,2.459,-0.198,2.499,0.025
17.758,0.000,0.000,0.000,7.492,3.261,1.186,105.225,54.509,17.023,-0.671,-0.688,0.451,-0.012,0.098,-0.147,0.004,-0.342,-0.612,2.499,0.025,2.459,-0.198,2.499,0.025
17.787,0.000,0.000,0.000,7.491,3.253,1.197,105.368,54.571,17.046,-0.606,-0.833,-0.228,-0.019,0.094,-0.142,0.021,-0.360,-0.617,2.499,0.025,2.459,-0.198,2.499,0.025
17.815,0.000,0.000,0.000,7.485,3.237,1.215,105.667,54.700,17.094,-0.495,-0.106,0.024,-0.024,0.091,-0.140,0.049,-0.374,-0.595,2.499,0.025,2.459,-0.198,2.499,0.025
17.844,0.000,0.000,0.000,7.480,3.228,1.224,105.817,54.765,17.119,0.197,0.335,0.178,-0.034,0.086,-0.137,0.053,-0.367,-0.599,2.499,0.025,2.459,-0.198,2.499,0.025
17.874,0.000,0.000,0.000,7.468,3.211,1.239,106.131,54.900,17.170,0.368,0.002,0.083,-0.039,0.084,-0.134,0.042,-0.357,-0.604,2.499,0.025,2.459,-0.198,2.499,0.025
17.905,0.000,0.000,0.000,7.463,3.205,1.239,106.265,54.958,17.193,0.043,-0.181,0.061,-0.043,0.082,-0.131,0.032,-0.357,-0.616,2.995,-0.042,2.871,-0.482,2.995,-0.042
17.934,0.000,0.000,0.000,7.452,3.197,1.227,106.564,55.086,17.242,-0.035,0.043,0.186,-0.045,0.080,-0.129,0.029,-0.359,-0.616,2.995,-0.042,2.871,-0.482,2.995,-0.042
17.962,0.000,0.000,0.000,7.448,3.194,1.218,106.720,55.153,17.268,0.001,0.249,0.331,-0.046,0.079,-0.127,0.030,-0.354,-0.628,2.995,-0.042,2.871,-0.482,2.995,-0.042
17.991,0.000,0.000,0.000,7.444,3.191,1.209,106.861,55.214,17.291,-0.006,0.220,0.376,-0.049,0.078,-0.121,0.030,-0.351,-0.603,2.995,-0.042,2.871,-0.482,2.995,-0.042
18.019,0.000,0.000,0.000,7.441,3.184,1.191,107.159,55.341,17.339,-0.061,0.183,0.340,-0.050,0.079,-0.117,0.032,-0.347,-0.589,2.995,-0.042,2.871,-0.482,2.995,-0.042
18.049,0.000,0.000,0.000,7.441,3.181,1.184,107.308,55.405,17.363,-0.016,0.127,0.233,-0.053,0.080,-0.110,0.033,-0.344,-0.569,2.995,-0.042,2.871,-0.482,2.995,-0.042
18.078,0.000,0.000,0.000,7.444,3.178,1.168,107.606,55.532,17.410,0.032,0.050,0.193,-0.054,0.081,-0.105,0.028,-0.342,-0.565,2.995,-0.042,2.871,-0.482,2.995,-0.042
18.109,0.000,0.000,0.000,7.446,3.178,1.159,107.762,55.599,17.434,0.070,-0.103,0.194,-0.056,0.083,-0.097,0.021,-0.346,-0.586,2.995,-0.042,2.871,-0.482,2.995,-0.042
18.139,0.000,0.000,0.000,7.452,3.182,1.139,108.052,55.723,17.479,0.090,-0.130,0.177,-0.056,0.084,-0.094,0.010,-0.354,-0.601,2.995,-0.042,2.871,-0.482,2.995,-0.042
18.167,0.000,0.000,0.000,7.457,3.186,1.126,108.216,55.793,17.504,0.034,-0.022,0.169,-0.056,0.084,-0.086,0.009,-0.355,-0.577,2.995,-0.042,2.871,-0.482,2.995,-0.042
18.196,0.000,0.000,0.000,7.464,3.195,1.104,108.500,55.914,17.546,0.017,0.050,0.125,-0.056,0.084,-0.082,0.004,-0.356,-0.575,2.995,-0.042,2.871,-0.482,2.995,-0.042
18.226,0.000,0.000,0.000,7.467,3.202,1.096,108.649,55.978,17.568,0.177,0.206,0.064,-0.056,0.085,-0.075,-0.008,-0.350,-0.564,2.995,-0.042,2.871,-0.482,2.995,-0.042
18.252,0.000,0.000,0.000,7.469,3.222,1.087,108.948,56.107,17.612,0.324,0.109,0.187,-0.056,0.086,-0.072,-0.025,-0.348,-0.594,2.995,-0.042,2.871,-0.482,2.995,-0.042
18.278,0.000,0.000,0.000,7.472,3.233,1.084,109.097,56.171,17.634,0.282,-0.154,0.298,-0.054,0.086,-0.068,-0.030,-0.351,-0.597,2.995,-0.042,2.871,-0.482,2.995,-0.042
18.305,0.000,0.000,0.000,7.476,3.244,1.081,109.247,56.236,17.655,-0.341,-0.585,0.125,-0.053,0.085,-0.061,-0.030,-0.368,-0.566,2.995,-0.042,2.871,-0.482,2.995,-0.042
18.331,0.000,0.000,0.000,7.484,3.266,1.079,109.546,56.366,17.698,-0.282,-0.485,0.111,-0.053,0.083,-0.058,-0.023,-0.380,-0.560,2.995,-0.042,2.871,-0.482,2.995,-0.042
18.358,0.000,0.000,0.000,7.488,3.274,1.080,109.696,56.432,17.720,-0.381,-0.013,0.140,-0.054,0.080,-0.054,-0.007,-0.389,-0.546,2.995,-0.042,2.871,-0.482,2.995,-0.042
18.384,0.000,0.000,0.000,7.490,3.279,1.090,109.853,56.500,17.743,-0.553,0.874,0.398,-0.058,0.078,-0.047,0.016,-0.375,-0.536,2.995,-0.042,2.871,-0.482,2.995,-0.042
18.411,0.000,0.000,0.000,7.492,3.280,1.107,109.995,56.563,17.764,-0.154,0.312,0.162,-0.061,0.079,-0.043,0.026,-0.359,-0.530,2.995,-0.042,2.871,-0.482,2.995,-0.042
18.440,0.000,0.000,0.000,7.501,3.275,1.147,110.295,56.694,17.809,0.173,-0.421,-0.397,-0.064,0.081,-0.040,0.036,-0.369,-0.518,2.995,-0.042,2.871,-0.482,2.995,-0.042
18.465,0.000,0.000,0.000,7.506,3.271,1.160,110.445,56.759,17.832,-0.004,-0.054,-0.651,-0.068,0.080,-0.037,0.031,-0.373,-0.520,2.995,-0.042,2.871,-0.482,2.995,-0.042
18.490,0.000,0.000,0.000,7.509,3.268,1.168,110.603,56.828,17.856,-0.117,0.485,-0.327,-0.070,0.080,-0.038,0.031,-0.374,-0.528,2.995,-0.042,2.871,-0.482,2.995,-0.042
18.515,0.000,0.000,0.000,7.510,3.262,1.181,110.896,56.955,17.902,-0.172,0.661,-0.109,-0.072,0.081,-0.039,0.041,-0.347,-0.521,2.995,-0.042,2.871,-0.482,2.995,-0.042
18.540,0.000,0.000,0.000,7.510,3.257,1.188,111.046,57.020,17.926,-0.197,0.506,-0.086,-0.074,0.084,-0.040,0.052,-0.339,-0.503,2.995,-0.042,2.871,-0.482,2.995,-0.042
18.566,0.000,0.000,0.000,7.511,3.251,1.196,111.204,57.089,17.951,-0.094,0.007,-0.247,-0.078,0.089,-0.043,0.054,-0.334,-0.525,2.995,-0.042,2.871,-0.482,2.995,-0.042
18.591,0.000,0.000,0.000,7.513,3.245,1.201,111.346,57.151,17.974,-0.033,-0.139,-0.334,-0.081,0.091,-0.045,0.057,-0.337,-0.529,2.995,-0.042,2.871,-0.482,2.995,-0.042
18.617,0.000,0.000,0.000,7.519,3.236,1.204,111.647,57.280,18.022,-0.027,-0.189,-0.338,-0.083,0.093,-0.047,0.053,-0.348,-0.532,2.995,-0.042,2.871,-0.482,2.995,-0.042
18.644,0.000,0.000,0.000,7.524,3.235,1.200,111.798,57.345,18.046,-0.035,-0.081,-0.260,-0.086,0.095,-0.053,0.054,-0.351,-0.553,2.995,-0.042,2.871,-0.482,2.995,-0.042
18.670,0.000,0.000,0.000,7.530,3.234,1.193,111.948,57.410,18.070,0.061,0.065,-0.246,-0.088,0.096,-0.056,0.052,-0.353,-0.557,2.995,-0.042,2.871,-0.482,2.995,-0.042
18.698,0.000,0.000,0.000,7.539,3.237,1.174,112.249,57.539,18.117,0.142,0.260,-0.290,-0.089,0.097,-0.060,0.042,-0.340,-0.566,2.995,-0.042,2.871,-0.482,2.995,-0.042
18.724,0.000,0.000,0.000,7.541,3.240,1.165,112.400,57.604,18.140,0.093,0.334,-0.046,-0.091,0.100,-0.067,0.039,-0.333,-0.573,2.995,-0.042,2.871,-0.482,2.995,-0.042
18.751,0.000,0.000,0.000,7.542,3.243,1.157,112.551,57.669,18.164,0.006,0.275,0.092,-0.091,0.103,-0.070,0.035,-0.326,-0.593,2.995,-0.042,2.871,-0.482,2.995,-0.042
18.777,0.000,0.000,0.000,7.544,3.252,1.144,112.853,57.798,18.210,-0.023,0.112,0.079,-0.091,0.105,-0.073,0.029,-0.321,-0.585,2.995,-0.042,2.871,-0.482,2.995,-0.042
18.804,0.000,0.000,0.000,7.546,3.257,1.137,113.004,57.864,18.232,-0.045,-0.242,-0.082,-0.092,0.109,-0.077,0.029,-0.324,-0.571,2.995,-0.042,2.871,-0.482,2.995,-0.042
18.831,0.000,0.000,0.000,7.550,3.263,1.131,113.155,57.929,18.255,-0.067,-0.117,-0.095,-0.092,0.110,-0.080,0.023,-0.333,-0.581,2.995,-0.042,2.871,-0.482,2.995,-0.042
18.860,0.000,0.000,0.000,7.558,3.278,1.121,113.457,58.060,18.300,0.017,0.076,-0.115,-0.093,0.111,-0.082,0.020,-0.337,-0.579,2.995,-0.042,2.871,-0.482,2.995,-0.042
18.889,0.000,0.000,0.000,7.564,3.286,1.119,113.616,58.128,18.324,0.268,0.209,-0.304,-0.093,0.114,-0.086,0.017,-0.333,-0.575,3.493,-0.084,3.291,-0.753,3.493,-0.084
18.918,0.000,0.000,0.000,7.570,3.302,1.114,113.911,58.257,18.367,0.097,0.321,-0.192,-0.092,0.116,-0.089,0.007,-0.317,-0.592,3.493,-0.084,3.291,-0.753,3.493,-0.084
18.948,0.000,0.000,0.000,7.568,3.310,1.115,114.062,58.323,18.389,-0.880,0.861,0.860,-0.093,0.122,-0.093,0.011,-0.298,-0.582,3.493,-0.084,3.291,-0.753,3.493,-0.084
18.977,0.000,0.000,0.000,7.566,3.318,1.139,114.365,58.456,18.434,-1.065,0.428,1.227,-0.096,0.127,-0.092,0.058,-0.290,-0.541,3.493,-0.084,3.291,-0.753,3.493,-0.084
19.007,0.000,0.000,0.000,7.573,3.311,1.161,114.524,58.525,18.459,-0.384,-0.875,-0.076,-0.105,0.134,-0.086,0.072,-0.298,-0.550,3.493,-0.084,3.291,-0.753,3.493,-0.084
19.036,0.000,0.000,0.000,7.584,3.294,1.201,114.819,58.654,18.505,-0.055,-0.421,-0.667,-0.110,0.135,-0.083,0.090,-0.322,-0.538,3.493,-0.084,3.291,-0.753,3.493,-0.084
19.065,0.000,0.000,0.000,7.581,3.287,1.221,114.971,58.720,18.529,0.770,0.390,-0.062,-0.117,0.136,-0.083,0.080,-0.305,-0.542,3.493,-0.084,3.291,-0.753,3.493,-0.084
19.093,0.000,0.000,0.000,7.566,3.274,1.254,115.274,58.851,18.578,0.845,0.270,0.468,-0.118,0.138,-0.082,0.055,-0.287,-0.554,3.493,-0.084,3.291,-0.753,3.493,-0.084
19.121,0.000,0.000,0.000,7.558,3.266,1.264,115.425,58.917,18.604,0.667,-0.274,0.575,-0.117,0.139,-0.081,0.039,-0.293,-0.514,3.493,-0.084,3.291,-0.753,3.493,-0.084
19.149,0.000,0.000,0.000,7.552,3.257,1.269,115.576,58.982,18.629,0.042,-0.511,0.244,-0.114,0.139,-0.076,0.041,-0.308,-0.489,3.493,-0.084,3.291,-0.753,3.493,-0.084
19.175,0.000,0.000,0.000,7.544,3.237,1.265,115.878,59.112,18.680,-0.045,-0.225,0.106,-0.112,0.138,-0.073,0.042,-0.320,-0.476,3.493,-0.084,3.291,-0.753,3.493,-0.084
19.200,0.000,0.000,0.000,7.540,3.228,1.258,116.029,59.176,18.705,0.112,-0.011,0.121,-0.110,0.136,-0.070,0.038,-0.321,-0.473,3.493,-0.084,3.291,-0.753,3.493,-0.084
19.226,0.000,0.000,0.000,7.537,3.220,1.248,116.180,59.241,18.730,0.290,0.192,0.131,-0.106,0.134,-0.065,0.032,-0.317,-0.472,3.493,-0.084,3.291,-0.753,3.493,-0.084
19.251,0.000,0.000,0.000,7.533,3.205,1.222,116.481,59.369,18.779,0.160,0.213,0.094,-0.104,0.134,-0.062,0.025,-0.314,-0.468,3.493,-0.084,3.291,-0.753,3.493,-0.084
19.276,0.000,0.000,0.000,7.532,3.199,1.208,116.632,59.433,18.804,0.038,0.178,0.022,-0.101,0.134,-0.060,0.019,-0.307,-0.469,3.493,-0.084,3.291,-0.753,3.493,-0.084
19.301,0.000,0.000,0.000,7.531,3.194,1.195,116.782,59.497,18.828,0.016,0.148,-0.057,-0.099,0.135,-0.058,0.014,-0.305,-0.466,3.493,-0.084,3.291,-0.753,3.493,-0.084
19.326,0.000,0.000,0.000,7.531,3.192,1.182,116.933,59.561,18.851,0.160,0.099,-0.109,-0.094,0.136,-0.054,0.011,-0.303,-0.458,3.493,-0.084,3.291,-0.753,3.493,-0.084
19.351,0.000,0.000,0.000,7.531,3.192,1.158,117.234,59.689,18.898,0.170,0.070,-0.131,-0.092,0.137,-0.053,0.000,-0.300,-0.472,3.493,-0.084,3.291,-0.753,3.493,-0.084
19.376,0.000,0.000,0.000,7.530,3.195,1.146,117.392,59.756,18.922,0.169,0.000,-0.133,-0.089,0.138,-0.052,-0.017,-0.298,-0.488,3.992,-0.110,3.733,-0.987,3.992,-0.110
19.402,0.000,0.000,0.000,7.530,3.200,1.135,117.536,59.817,18.944,0.115,-0.237,-0.043,-0.085,0.139,-0.052,-0.021,-0.300,-0.478,3.992,-0.110,3.733,-0.987,3.992,-0.110
19.428,0.000,0.000,0.000,7.530,3.206,1.123,117.694,59.884,18.968,0.046,-0.302,-0.061,-0.082,0.138,-0.051,-0.029,-0.308,-0.495,3.992,-0.110,3.733,-0.987,3.992,-0.110
19.455,0.000,0.000,0.000,7.533,3.218,1.107,117.987,60.009,19.011,0.057,-0.089,-0.104,-0.080,0.138,-0.052,-0.029,-0.316,-0.486,3.992,-0.110,3.733,-0.987,3.992,-0.110
19.482,0.000,0.000,0.000,7.533,3.222,1.107,118.138,60.073,19.033,0.503,0.843,-0.217,-0.075,0.138,-0.052,-0.034,-0.308,-0.496,3.992,-0.110,3.733,-0.987,3.992,-0.110
19.507,0.000,0.000,0.000,7.532,3.227,1.114,118.289,60.138,19.056,1.158,0.348,-0.365,-0.071,0.140,-0.054,-0.040,-0.287,-0.477,3.992,-0.110,3.733,-0.987,3.992,-0.110
19.535,0.000,0.000,0.000,7.522,3.231,1.131,118.590,60.267,19.100,0.872,0.192,-0.413,-0.065,0.143,-0.055,-0.079,-0.265,-0.500,3.992,-0.110,3.733,-0.987,3.992,-0.110
19.561,0.000,0.000,0.000,7.514,3.232,1.138,118.740,60.332,19.123,0.224,0.536,-0.297,-0.059,0.146,-0.058,-0.083,-0.253,-0.505,3.992,-0.110,3.733,-0.987,3.992,-0.110
19.587,0.000,0.000,0.000,7.505,3.232,1.151,118.890,60.396,19.146,-0.590,0.309,0.276,-0.049,0.154,-0.062,-0.066,-0.239,-0.472,3.992,-0.110,3.733,-0.987,3.992,-0.110
19.613,0.000,0.000,0.000,7.495,3.225,1.183,119.190,60.526,19.193,-0.514,-0.475,0.150,-0.046,0.158,-0.064,-0.042,-0.255,-0.460,3.992,-0.110,3.733,-0.987,3.992,-0.110
19.640,0.000,0.000,0.000,7.496,3.220,1.194,119.340,60.590,19.217,-0.457,-0.876,-0.213,-0.045,0.161,-0.065,-0.034,-0.273,-0.457,3.992,-0.110,3.733,-0.987,3.992,-0.110
19.666,0.000,0.000,0.000,7.498,3.214,1.202,119.490,60.654,19.240,-0.487,-0.214,-0.204,-0.045,0.161,-0.068,-0.022,-0.290,-0.472,3.992,-0.110,3.733,-0.987,3.992,-0.110
19.692,0.000,0.000,0.000,7.504,3.202,1.214,119.790,60.783,19.289,-0.347,0.199,-0.077,-0.047,0.160,-0.070,0.001,-0.291,-0.453,3.992,-0.110,3.733,-0.987,3.992,-0.110
19.720,0.000,0.000,0.000,7.506,3.194,1.220,119.940,60.847,19.313,-0.108,0.303,-0.103,-0.049,0.160,-0.072,0.002,-0.285,-0.440,3.992,-0.110,3.733,-0.987,3.992,-0.110
19.746,0.000,0.000,0.000,7.509,3.187,1.225,120.090,60.910,19.338,0.086,-0.263,-0.194,-0.052,0.161,-0.077,0.003,-0.283,-0.428,3.992,-0.110,3.733,-0.987,3.992,-0.110
19.773,0.000,0.000,0.000,7.515,3.172,1.225,120.391,61.038,19.387,-0.169,-0.585,-0.226,-0.053,0.161,-0.079,0.001,-0.304,-0.435,3.992,-0.110,3.733,-0.987,3.992,-0.110
19.799,0.000,0.000,0.000,7.520,3.166,1.219,120.541,61.101,19.411,-0.467,-0.657,-0.227,-0.055,0.159,-0.082,0.009,-0.317,-0.435,3.992,-0.110,3.733,-0.987,3.992,-0.110
19.825,0.000,0.000,0.000,7.526,3.161,1.211,120.692,61.164,19.435,-0.335,-0.120,-0.239,-0.061,0.153,-0.087,0.020,-0.328,-0.451,3.992,-0.110,3.733,-0.987,3.992,-0.110
19.851,0.000,0.000,0.000,7.536,3.154,1.196,120.993,61.291,19.484,0.089,0.095,-0.255,-0.064,0.151,-0.091,0.025,-0.331,-0.451,3.992,-0.110,3.733,-0.987,3.992,-0.110
19.876,0.000,0.000,0.000,7.540,3.153,1.187,121.151,61.357,19.509,0.451,0.084,-0.255,-0.067,0.147,-0.096,0.007,-0.325,-0.464,4.490,-0.158,4.180,-1.211,4.490,-0.158
19.904,0.000,0.000,0.000,7.544,3.154,1.176,121.295,61.417,19.531,0.214,-0.076,-0.072,-0.068,0.144,-0.101,-0.011,-0.324,-0.485,4.490,-0.158,4.180,-1.211,4.490,-0.158
19.930,0.000,0.000,0.000,7.547,3.157,1.164,121.445,61.480,19.554,-0.114,-0.144,0.031,-0.068,0.142,-0.104,-0.017,-0.326,-0.488,4.490,-0.158,4.180,-1.211,4.490,-0.158
19.957,0.000,0.000,0.000,7.556,3.164,1.143,121.748,61.606,19.601,-0.252,-0.260,0.048,-0.069,0.140,-0.107,-0.015,-0.339,-0.481,4.490,-0.158,4.180,-1.211,4.490,-0.158
19.983,0.000,0.000,0.000,7.562,3.169,1.134,121.899,61.670,19.623,0.002,-0.314,-0.161,-0.071,0.135,-0.112,-0.018,-0.349,-0.485,4.490,-0.158,4.180,-1.211,4.490,-0.158
20.009,0.000,0.000,0.000,7.568,3.174,1.125,122.050,61.733,19.646,0.147,-0.076,-0.276,-0.072,0.132,-0.114,-0.019,-0.355,-0.483,4.490,-0.158,4.180,-1.211,4.490,-0.158
20.037,0.000,0.000,0.000,7.573,3.188,1.109,122.360,61.863,19.692,0.215,0.294,-0.343,-0.072,0.129,-0.118,-0.032,-0.343,-0.495,4.490,-0.158,4.180,-1.211,4.490,-0.158
20.062,0.000,0.000,0.000,7.570,3.196,1.108,122.504,61.924,19.713,0.270,0.538,-0.335,-0.072,0.128,-0.121,-0.040,-0.325,-0.492,4.490,-0.158,4.180,-1.211,4.490,-0.158
20.087,0.000,0.000,0.000,7.566,3.204,1.108,122.656,61.988,19.735,0.075,0.123,-0.112,-0.070,0.128,-0.128,-0.046,-0.315,-0.488,4.490,-0.158,4.180,-1.211,4.490,-0.158
20.112,0.000,0.000,0.000,7.557,3.216,1.113,122.958,62.116,19.779,-0.259,-0.199,-0.203,-0.070,0.128,-0.131,-0.041,-0.316,-0.486,4.490,-0.158,4.180,-1.211,4.490,-0.158
20.141,0.000,0.000,0.000,7.551,3.221,1.122,123.117,62.184,19.803,-0.864,0.347,-0.010,-0.070,0.128,-0.135,-0.018,-0.309,-0.464,4.490,-0.158,4.180,-1.211,4.490,-0.158
20.166,0.000,0.000,0.000,7.547,3.222,1.137,123.260,62.245,19.824,-0.484,0.090,0.363,-0.075,0.131,-0.139,-0.005,-0.302,-0.459,4.490,-0.158,4.180,-1.211,4.490,-0.158
20.194,0.000,0.000,0.000,7.540,3.216,1.175,123.562,62.374,19.871,-0.066,-0.301,0.018,-0.079,0.132,-0.140,0.019,-0.312,-0.443,4.490,-0.158,4.180,-1.211,4.490,-0.158
20.225,0.000,0.000,0.000,7.535,3.211,1.189,123.713,62.438,19.894,0.321,-0.189,-0.458,-0.084,0.132,-0.144,0.017,-0.304,-0.451,4.490,-0.158,4.180,-1.211,4.490,-0.158
20.253,0.000,0.000,0.000,7.514,3.200,1.205,124.014,62.567,19.942,0.257,0.330,0.093,-0.085,0.132,-0.146,0.010,-0.291,-0.458,4.490,-0.158,4.180,-1.211,4.490,-0.158
20.280,0.000,0.000,0.000,7.501,3.193,1.213,124.164,62.631,19.966,0.098,0.607,0.799,-0.086,0.132,-0.148,0.004,-0.280,-0.458,4.490,-0.158,4.180,-1.211,4.490,-0.158
20.309,0.000,0.000,0.000,7.489,3.182,1.221,124.321,62.697,19.992,-0.148,0.077,0.958,-0.087,0.136,-0.145,0.020,-0.278,-0.440,4.490,-0.158,4.180,-1.211,4.490,-0.158
20.338,0.000,0.000,0.000,7.475,3.155,1.235,124.613,62.821,20.040,-0.140,-0.274,0.463,-0.089,0.137,-0.141,0.028,-0.285,-0.426,4.490,-0.158,4.180,-1.211,4.490,-0.158
20.367,0.000,0.000,0.000,7.470,3.139,1.239,124.770,62.887,20.066,-0.060,-0.445,0.042,-0.090,0.138,-0.136,0.029,-0.294,-0.420,4.490,-0.158,4.180,-1.211,4.490,-0.158
20.397,0.000,0.000,0.000,7.464,3.114,1.237,125.061,63.009,20.114,0.117,-0.324,0.029,-0.092,0.138,-0.130,0.025,-0.309,-0.414,4.986,-0.223,4.636,-1.415,4.986,-0.223
20.429,0.000,0.000,0.000,7.462,3.103,1.229,125.210,63.071,20.139,0.143,-0.206,-0.011,-0.092,0.135,-0.124,0.018,-0.314,-0.402,4.986,-0.223,4.636,-1.415,4.986,-0.223
20.458,0.000,0.000,0.000,7.461,3.085,1.204,125.509,63.195,20.187,0.142,-0.092,-0.020,-0.092,0.133,-0.121,0.008,-0.320,-0.404,4.986,-0.223,4.636,-1.415,4.986,-0.223
20.487,0.000,0.000,0.000,7.460,3.079,1.189,125.658,63.257,20.211,0.252,0.241,-0.004,-0.091,0.130,-0.117,0.003,-0.318,-0.385,4.986,-0.223,4.636,-1.415,4.986,-0.223
20.515,0.000,0.000,0.000,7.458,3.069,1.162,125.964,63.383,20.259,0.298,0.233,-0.010,-0.090,0.130,-0.115,-0.011,-0.308,-0.382,4.986,-0.223,4.636,-1.415,4.986,-0.223
20.546,0.000,0.000,0.000,7.456,3.066,1.151,126.113,63.444,20.283,0.132,-0.199,-0.170,-0.086,0.129,-0.113,-0.019,-0.308,-0.384,4.986,-0.223,4.636,-1.415,4.986,-0.223
20.575,0.000,0.000,0.000,7.456,3.063,1.135,126.404,63.563,20.327,0.104,-0.258,-0.202,-0.084,0.128,-0.112,-0.025,-0.319,-0.387,4.986,-0.223,4.636,-1.415,4.986,-0.223
20.604,0.000,0.000,0.000,7.456,3.062,1.131,126.553,63.625,20.350,0.353,-0.292,-0.413,-0.080,0.125,-0.113,-0.030,-0.324,-0.385,4.986,-0.223,4.636,-1.415,4.986,-0.223
20.632,0.000,0.000,0.000,7.455,3.064,1.125,126.859,63.750,20.396,0.486,-0.324,-0.516,-0.077,0.123,-0.115,-0.041,-0.328,-0.394,4.986,-0.223,4.636,-1.415,4.986,-0.223
20.660,0.000,0.000,0.000,7.453,3.067,1.125,127.000,63.809,20.417,0.508,-0.348,-0.525,-0.073,0.120,-0.117,-0.064,-0.336,-0.412,4.986,-0.223,4.636,-1.415,4.986,-0.223
20.688,0.000,0.000,0.000,7.449,3.070,1.125,127.157,63.873,20.441,0.275,-0.428,-0.275,-0.065,0.114,-0.123,-0.073,-0.342,-0.439,4.986,-0.223,4.636,-1.415,4.986,-0.223
20.717,0.000,0.000,0.000,7.440,3.074,1.129,127.447,63.993,20.485,0.057,-0.516,-0.211,-0.060,0.110,-0.127,-0.078,-0.355,-0.439,4.986,-0.223,4.636,-1.415,4.986,-0.223
20.747,0.000,0.000,0.000,7.434,3.075,1.136,127.596,64.054,20.508,-0.562,0.252,0.421,-0.054,0.102,-0.134,-0.063,-0.358,-0.434,4.986,-0.223,4.636,-1.415,4.986,-0.223
20.776,0.000,0.000,0.000,7.423,3.066,1.166,127.893,64.177,20.554,-0.364,-0.088,0.235,-0.052,0.099,-0.136,-0.034,-0.359,-0.423,4.986,-0.223,4.636,-1.415,4.986,-0.223
20.806,0.000,0.000,0.000,7.419,3.058,1.183,128.041,64.238,20.577,-0.011,-0.250,-0.209,-0.051,0.092,-0.139,-0.032,-0.366,-0.417,4.986,-0.223,4.636,-1.415,4.986,-0.223
20.834,0.000,0.000,0.000,7.406,3.041,1.209,128.338,64.360,20.625,-0.142,0.084,0.111,-0.051,0.088,-0.141,-0.026,-0.362,-0.415,4.986,-0.223,4.636,-1.415,4.986,-0.223
20.862,0.000,0.000,0.000,7.399,3.031,1.221,128.486,64.421,20.649,-0.340,0.353,0.381,-0.051,0.085,-0.142,-0.008,-0.355,-0.392,4.986,-0.223,4.636,-1.415,4.986,-0.223
20.890,0.000,0.000,0.000,7.392,3.017,1.234,128.649,64.488,20.676,-0.202,0.121,0.202,-0.053,0.082,-0.142,-0.002,-0.348,-0.380,5.481,-0.294,5.099,-1.603,5.481,-0.294
20.919,0.000,0.000,0.000,7.382,2.993,1.252,128.929,64.602,20.724,-0.017,-0.188,0.007,-0.054,0.081,-0.142,0.006,-0.349,-0.378,5.481,-0.294,5.099,-1.603,5.481,-0.294
20.949,0.000,0.000,0.000,7.379,2.981,1.254,129.084,64.665,20.750,-0.031,-0.297,-0.136,-0.057,0.078,-0.141,0.005,-0.361,-0.393,5.481,-0.294,5.099,-1.603,5.481,-0.294
20.976,0.000,0.000,0.000,7.378,2.962,1.243,129.372,64.780,20.799,0.029,-0.181,-0.230,-0.058,0.076,-0.142,-0.008,-0.370,-0.401,5.481,-0.294,5.099,-1.603,5.481,-0.294
21.006,0.000,0.000,0.000,7.377,2.957,1.230,129.527,64.843,20.825,0.274,0.364,-0.150,-0.059,0.072,-0.143,-0.012,-0.368,-0.406,5.481,-0.294,5.099,-1.603,5.481,-0.294
21.035,0.000,0.000,0.000,7.376,2.954,1.199,129.815,64.958,20.872,0.233,0.557,0.100,-0.059,0.072,-0.144,-0.033,-0.348,-0.416,5.481,-0.294,5.099,-1.603,5.481,-0.294
21.064,0.000,0.000,0.000,7.375,2.954,1.186,129.962,65.017,20.896,-0.002,0.446,0.274,-0.057,0.075,-0.145,-0.036,-0.339,-0.407,5.481,-0.294,5.099,-1.603,5.481,-0.294
21.092,0.000,0.000,0.000,7.379,2.954,1.168,130.257,65.135,20.943,-0.082,0.170,0.222,-0.057,0.077,-0.145,-0.035,-0.334,-0.418,5.481,-0.294,5.099,-1.603,5.481,-0.294
21.120,0.000,0.000,0.000,7.383,2.954,1.163,130.412,65.197,20.967,-0.100,-0.111,0.111,-0.057,0.079,-0.144,-0.034,-0.337,-0.413,5.481,-0.294,5.099,-1.603,5.481,-0.294
21.150,0.000,0.000,0.000,7.390,2.953,1.160,130.567,65.259,20.992,0.037,-0.297,0.007,-0.056,0.081,-0.142,-0.031,-0.351,-0.418,5.481,-0.294,5.099,-1.603,5.481,-0.294
21.176,0.000,0.000,0.000,7.407,2.950,1.157,130.848,65.371,21.036,0.126,-0.307,-0.106,-0.056,0.082,-0.142,-0.034,-0.368,-0.429,5.481,-0.294,5.099,-1.603,5.481,-0.294
21.207,0.000,0.000,0.000,7.417,2.948,1.156,131.004,65.433,21.060,0.225,-0.093,-0.411,-0.055,0.080,-0.142,-0.038,-0.372,-0.426,5.481,-0.294,5.099,-1.603,5.481,-0.294
21.235,0.000,0.000,0.000,7.431,2.946,1.158,131.301,65.551,21.106,0.175,0.051,-0.365,-0.054,0.080,-0.143,-0.044,-0.369,-0.443,5.481,-0.294,5.099,-1.603,5.481,-0.294
21.263,0.000,0.000,0.000,7.435,2.944,1.161,131.442,65.607,21.128,0.115,-0.093,-0.246,-0.051,0.079,-0.147,-0.041,-0.362,-0.431,5.481,-0.294,5.099,-1.603,5.481,-0.294
21.291,0.000,0.000,0.000,7.434,2.939,1.167,131.740,65.725,21.175,0.022,-0.092,-0.236,-0.049,0.078,-0.149,-0.044,-0.363,-0.451,5.481,-0.294,5.099,-1.603,5.481,-0.294
21.319,0.000,0.000,0.000,7.428,2.936,1.175,131.888,65.783,21.198,-0.231,0.169,-0.028,-0.048,0.078,-0.152,-0.039,-0.350,-0.449,5.481,-0.294,5.099,-1.603,5.481,-0.294
21.350,0.000,0.000,0.000,7.422,2.929,1.187,132.044,65.845,21.223,-0.726,-0.035,0.759,-0.048,0.078,-0.154,-0.009,-0.348,-0.416,5.481,-0.294,5.099,-1.603,5.481,-0.294
21.378,0.000,0.000,0.000,7.416,2.904,1.212,132.341,65.962,21.271,-0.567,-0.250,0.093,-0.052,0.078,-0.154,0.031,-0.352,-0.390,5.975,-0.371,5.562,-1.793,5.975,-0.371
21.408,0.000,0.000,0.000,7.412,2.888,1.225,132.482,66.017,21.294,-0.029,0.656,0.045,-0.056,0.078,-0.153,0.036,-0.346,-0.376,5.975,-0.371,5.562,-1.793,5.975,-0.371
21.438,0.000,0.000,0.000,7.397,2.855,1.253,132.778,66.132,21.344,0.130,0.524,0.194,-0.059,0.080,-0.153,0.039,-0.317,-0.378,5.975,-0.371,5.562,-1.793,5.975,-0.371
21.468,0.000,0.000,0.000,7.390,2.839,1.263,132.926,66.189,21.369,-0.081,-0.418,-0.031,-0.063,0.085,-0.151,0.038,-0.317,-0.405,5.975,-0.371,5.562,-1.793,5.975,-0.371
21.498,0.000,0.000,0.000,7.380,2.813,1.270,133.221,66.302,21.420,-0.143,-0.470,-0.115,-0.065,0.085,-0.150,0.035,-0.334,-0.423,5.975,-0.371,5.562,-1.793,5.975,-0.371
21.528,0.000,0.000,0.000,7.376,2.804,1.264,133.369,66.358,21.445,0.114,0.018,0.044,-0.068,0.085,-0.150,0.037,-0.339,-0.422,5.975,-0.371,5.562,-1.793,5.975,-0.371
21.555,0.000,0.000,0.000,7.370,2.791,1.240,133.664,66.470,21.495,0.164,0.162,0.158,-0.069,0.085,-0.149,0.025,-0.334,-0.437,5.975,-0.371,5.562,-1.793,5.975,-0.371
21.585,0.000,0.000,0.000,7.369,2.786,1.224,133.811,66.525,21.520,-0.066,0.001,0.175,-0.071,0.085,-0.147,0.022,-0.334,-0.423,5.975,-0.371,5.562,-1.793,5.975,-0.371
21.613,0.000,0.000,0.000,7.367,2.779,1.190,134.106,66.637,21.568,-0.155,-0.060,0.142,-0.072,0.086,-0.146,0.025,-0.336,-0.422,5.975,-0.371,5.562,-1.793,5.975,-0.371
