time,acc_x,acc_y,acc_z,vel_x,vel_y,vel_z,pos_x,pos_y,pos_z,rad_vel_x,rad_vel_y,rad_vel_z,rad_gyro_x,rad_gyro_y,rad_gyro_z,rad_mag_x,rad_mag_y,rad_mag_z
0.077,0.000,0.000,0.000,0.000,0.000,0.000,0.000,0.000,0.000,0.000,0.000,0.000,-0.000,-0.000,-0.000,-0.000,-0.000,-0.000
0.282,-0.118,0.247,-0.184,0.000,0.000,0.000,0.000,0.000,0.000,-0.222,0.502,-1.016,-0.261,0.024,-1.687,-0.261,0.024,-1.687
0.364,-0.508,0.441,0.374,0.000,0.000,0.000,0.000,0.000,0.000,-0.222,0.502,-1.016,-0.294,-0.001,-1.614,-0.294,-0.001,-1.614
0.414,-0.560,0.311,0.347,0.000,0.000,0.000,0.000,0.000,0.000,-0.222,0.502,-1.016,-0.300,0.012,-1.615,-0.300,0.012,-1.615
0.458,-0.488,0.075,-0.024,0.000,0.000,0.000,0.000,0.000,0.000,-0.222,0.502,-1.016,-0.313,0.008,-1.571,-0.313,0.008,-1.571
0.499,-0.721,0.091,0.045,0.000,0.000,0.000,0.000,0.000,0.000,0.038,-0.119,0.022,-0.336,-0.034,-1.556,-0.336,-0.034,-1.556
0.541,-1.338,0.904,0.292,0.000,0.000,0.000,0.000,0.000,0.000,-0.165,-0.043,-0.122,-0.346,-0.061,-1.519,-0.346,-0.061,-1.519
0.584,-1.370,1.486,-0.039,0.000,0.000,0.000,0.000,0.000,0.000,-0.097,0.044,0.100,-0.356,-0.079,-1.469,-0.356,-0.079,-1.469
0.634,-1.541,1.115,0.317,0.000,0.000,0.000,0.000,0.000,0.000,-0.093,0.117,0.236,-0.382,-0.133,-1.402,-0.382,-0.133,-1.402
0.673,-1.584,1.492,-0.146,0.000,0.000,0.000,0.000,0.000,0.000,0.130,0.101,0.051,-0.374,-0.120,-1.427,-0.374,-0.120,-1.427
0.712,-1.524,1.248,-0.379,0.000,0.000,0.000,0.000,0.000,0.000,0.285,-0.037,-0.022,-0.393,-0.136,-1.374,-0.393,-0.136,-1.374
0.749,-1.563,1.233,-0.682,0.000,0.000,0.000,0.000,0.000,0.000,0.217,0.021,-0.009,-0.413,-0.154,-1.340,-0.413,-0.154,-1.340
0.784,-2.054,1.342,-0.290,0.000,0.000,0.000,0.000,0.000,0.000,-0.043,0.116,0.000,-0.426,-0.165,-1.320,-0.426,-0.165,-1.320
0.818,-2.273,1.497,-0.276,0.000,0.000,0.000,0.000,0.000,0.000,-0.079,0.070,-0.001,-0.430,-0.173,-1.302,-0.430,-0.173,-1.302
0.850,-2.360,1.844,-0.392,0.000,0.000,0.000,0.000,0.000,0.000,0.048,0.054,-0.004,-0.446,-0.201,-1.223,-0.446,-0.201,-1.223
0.882,-2.435,1.845,-0.365,0.000,0.000,0.000,0.000,0.000,0.000,0.045,0.050,0.029,-0.453,-0.208,-1.211,-0.453,-0.208,-1.211
0.913,-2.497,1.710,-0.294,0.000,0.000,0.000,0.000,0.000,0.000,-0.011,0.006,0.087,-0.443,-0.188,-1.239,-0.443,-0.188,-1.239
0.943,-2.418,1.339,-0.382,0.000,0.000,0.000,0.000,0.000,0.000,-0.026,0.017,0.077,-0.446,-0.199,-1.220,-0.446,-0.199,-1.220
0.971,-2.559,1.687,-0.386,0.000,0.000,0.000,0.000,0.000,0.000,-0.024,0.050,0.075,-0.459,-0.226,-1.173,-0.459,-0.226,-1.173
0.999,-2.613,1.684,-0.455,0.000,0.000,0.000,0.000,0.000,0.000,-0.035,0.023,0.066,-0.463,-0.233,-1.178,-0.463,-0.233,-1.178
1.027,-2.518,1.494,-0.560,0.000,0.000,0.000,0.000,0.000,0.000,-0.054,-0.005,0.061,-0.451,-0.213,-1.235,-0.451,-0.213,-1.235
1.055,-2.455,1.389,-0.566,0.000,0.000,0.000,0.000,0.000,0.000,-0.057,-0.002,0.077,-0.451,-0.213,-1.235,-0.452,-0.220,-1.196
1.083,-2.681,1.680,-0.437,0.000,0.000,0.000,0.000,0.000,0.000,-0.081,-0.027,0.056,-0.451,-0.213,-1.235,-0.465,-0.247,-1.139
1.110,-2.595,1.446,-0.408,0.000,0.000,0.000,0.000,0.000,0.000,-0.072,-0.044,0.048,-0.451,-0.213,-1.235,-0.453,-0.227,-1.177
1.139,-2.612,1.417,-0.361,0.000,0.000,0.000,0.000,0.000,0.000,-0.040,-0.050,0.053,-0.451,-0.213,-1.235,-0.454,-0.233,-1.162
1.166,-2.641,1.714,-0.353,0.000,0.000,0.000,0.000,0.000,0.000,-0.013,-0.022,0.066,-0.451,-0.213,-1.235,-0.468,-0.260,-1.104
1.193,-2.825,1.692,-0.361,0.000,0.000,0.000,0.000,0.000,0.000,-0.048,-0.007,0.059,-0.451,-0.213,-1.235,-0.469,-0.264,-1.068
1.221,-2.722,1.516,-0.436,0.000,0.000,0.000,0.000,0.000,0.000,-0.070,0.021,0.046,-0.451,-0.213,-1.235,-0.457,-0.241,-1.119
1.248,-2.852,1.832,-0.228,0.000,0.000,0.000,0.000,0.000,0.000,-0.067,0.039,0.066,-0.451,-0.213,-1.235,-0.469,-0.264,-1.075
1.275,-2.582,1.717,-0.380,0.000,0.000,0.000,0.000,0.000,0.000,-0.024,0.059,0.079,-0.451,-0.213,-1.235,-0.471,-0.263,-1.079
1.303,-2.398,1.394,-0.339,0.000,0.000,0.000,0.000,0.000,0.000,-0.002,0.072,0.097,-0.451,-0.213,-1.235,-0.461,-0.242,-1.131
1.329,-2.539,1.677,-0.270,0.000,0.000,0.000,0.000,0.000,0.000,-0.029,0.026,0.043,-0.451,-0.213,-1.235,-0.474,-0.265,-1.056
1.356,-2.832,1.716,-0.233,0.000,0.000,0.000,0.000,0.000,0.000,-0.046,0.023,-0.001,-0.451,-0.213,-1.235,-0.476,-0.263,-1.034
1.385,-2.747,1.592,-0.235,0.000,0.000,0.000,0.000,0.000,0.000,-0.117,0.022,-0.050,-0.451,-0.213,-1.235,-0.464,-0.239,-1.113
1.414,-2.618,1.706,-0.308,0.000,0.000,0.000,0.000,0.000,0.000,-0.100,0.067,-0.048,-0.451,-0.213,-1.235,-0.465,-0.233,-1.128
1.441,-2.588,1.779,-0.283,0.000,0.000,0.000,0.000,0.000,0.000,-0.059,0.078,-0.016,-0.451,-0.213,-1.235,-0.477,-0.253,-1.076
1.467,-2.345,1.548,-0.445,0.000,0.000,0.000,0.000,0.000,0.000,-0.018,0.051,0.020,-0.451,-0.213,-1.235,-0.468,-0.230,-1.128
1.493,-2.351,1.637,-0.652,0.000,0.000,0.000,0.000,0.000,0.000,0.004,0.031,0.018,-0.451,-0.213,-1.235,-0.482,-0.250,-1.041
1.519,-2.495,1.793,-0.570,0.000,0.000,0.000,0.000,0.000,0.000,-0.004,0.048,0.023,-0.451,-0.213,-1.235,-0.487,-0.245,-1.033
1.546,-2.381,1.556,-0.552,0.000,0.000,0.000,0.000,0.000,0.000,0.000,-0.049,0.026,-0.451,-0.213,-1.235,-0.478,-0.223,-1.078
1.572,-2.563,1.629,-0.447,0.000,0.000,0.000,0.000,0.000,0.000,0.012,-0.045,0.016,-0.451,-0.213,-1.235,-0.490,-0.243,-1.049
1.600,-2.583,1.730,-0.582,0.000,0.000,0.000,0.000,0.000,0.000,0.032,-0.013,-0.006,-0.451,-0.213,-1.235,-0.494,-0.240,-1.039
1.626,-2.568,1.424,-0.552,0.000,0.000,0.000,0.000,0.000,0.000,0.026,-0.039,-0.033,-0.451,-0.213,-1.235,-0.485,-0.217,-1.007
1.650,-2.913,1.430,-0.423,0.000,0.000,0.000,0.000,0.000,0.000,0.032,-0.064,-0.044,-0.451,-0.213,-1.235,-0.496,-0.234,-0.959
1.676,-2.931,1.266,-0.334,0.000,0.000,0.000,0.000,0.000,0.000,0.056,-0.086,-0.042,-0.451,-0.213,-1.235,-0.498,-0.229,-0.952
1.701,-2.795,0.981,-0.327,0.000,0.000,0.000,0.000,0.000,0.000,0.073,-0.121,-0.039,-0.451,-0.213,-1.235,-0.488,-0.210,-1.002
1.726,-3.005,1.194,-0.043,0.000,0.000,0.000,0.000,0.000,0.000,0.071,-0.183,-0.055,-0.451,-0.213,-1.235,-0.502,-0.229,-1.010
1.751,-2.886,0.977,0.092,0.000,0.000,0.000,0.000,0.000,0.000,0.094,-0.211,-0.049,-0.451,-0.213,-1.235,-0.491,-0.212,-1.064
1.776,-2.329,1.060,0.019,0.000,0.000,0.000,0.000,0.000,0.000,0.156,-0.200,-0.044,-0.451,-0.213,-1.235,-0.499,-0.217,-1.038
1.801,-2.339,0.975,-0.025,0.000,0.000,0.000,0.000,0.000,0.000,0.173,-0.173,-0.054,-0.451,-0.213,-1.235,-0.514,-0.236,-1.009
1.827,-2.819,0.540,0.315,0.000,0.000,0.000,0.000,0.000,0.000,-0.269,-0.288,-0.243,-0.451,-0.213,-1.235,-0.502,-0.222,-1.078
1.853,-3.987,1.469,0.073,0.000,0.000,0.000,0.000,0.000,0.000,-0.467,-0.258,-0.313,-0.451,-0.213,-1.235,-0.485,-0.214,-1.130
1.879,-3.227,1.965,-0.551,0.000,0.000,0.000,0.000,0.000,0.000,-0.403,0.026,-0.195,-0.451,-0.213,-1.235,-0.492,-0.225,-1.124
1.904,-2.392,1.548,-1.259,0.000,0.000,0.000,0.000,0.000,0.000,0.017,0.332,0.209,-0.451,-0.213,-1.235,-0.477,-0.195,-1.148
1.928,-2.255,1.207,-1.172,0.000,0.000,0.000,0.000,0.000,0.000,0.070,0.127,0.281,-0.451,-0.213,-1.235,-0.490,-0.205,-1.092
1.954,-2.404,0.258,-0.612,0.000,0.000,0.000,0.000,0.000,0.000,0.067,-0.116,0.281,-0.451,-0.213,-1.235,-0.490,-0.209,-1.070
1.979,-2.136,0.100,-0.968,0.000,0.000,0.000,0.000,0.000,0.000,0.139,-0.276,0.213,-0.451,-0.213,-1.235,-0.479,-0.206,-1.073
2.003,-2.287,0.230,-1.442,0.000,0.000,0.000,0.000,0.000,0.000,0.265,-0.221,-0.037,-0.451,-0.213,-1.235,-0.494,-0.226,-1.033
2.028,-2.364,0.077,-1.702,-0.002,0.000,-0.002,-0.000,0.000,-0.000,0.127,-0.089,-0.139,-0.451,-0.213,-1.235,-0.484,-0.216,-1.073
2.059,-3.747,-0.434,-0.223,-0.022,-0.000,-0.011,-0.000,0.000,-0.000,-0.122,-0.083,-0.208,-0.451,-0.213,-1.235,-0.474,-0.214,-1.099
2.086,-4.373,0.087,0.555,-0.043,-0.001,-0.016,-0.001,-0.000,-0.001,-0.440,-0.335,-0.244,-0.451,-0.213,-1.236,-0.480,-0.227,-1.088
2.111,-3.835,0.233,0.575,-0.071,-0.002,-0.019,-0.002,-0.000,-0.001,-0.330,-0.187,-0.132,-0.452,-0.214,-1.236,-0.453,-0.215,-1.151
2.136,-1.754,0.855,-0.560,-0.132,0.001,-0.023,-0.006,-0.000,-0.002,0.042,0.389,0.177,-0.452,-0.214,-1.237,-0.450,-0.208,-1.162
2.161,-1.185,0.811,-0.840,-0.167,0.005,-0.026,-0.010,-0.000,-0.002,0.073,0.392,0.217,-0.453,-0.214,-1.237,-0.462,-0.213,-1.119
2.186,-0.699,0.525,-0.518,-0.195,0.009,-0.030,-0.013,0.000,-0.003,-0.023,0.155,0.073,-0.454,-0.214,-1.237,-0.459,-0.201,-1.097
2.212,-1.108,0.260,-0.387,-0.225,0.014,-0.035,-0.017,0.000,-0.003,-0.028,-0.013,-0.081,-0.454,-0.214,-1.238,-0.469,-0.208,-1.070
2.236,-1.873,0.583,-0.406,-0.283,0.024,-0.046,-0.027,0.001,-0.005,-0.020,-0.077,-0.216,-0.455,-0.214,-1.238,-0.471,-0.207,-1.073
2.262,-1.898,0.528,-0.322,-0.316,0.030,-0.052,-0.034,0.002,-0.006,-0.020,-0.010,-0.246,-0.455,-0.214,-1.238,-0.462,-0.192,-1.132
2.287,-2.184,0.742,-0.237,-0.345,0.036,-0.057,-0.040,0.002,-0.007,-0.027,0.117,-0.220,-0.456,-0.213,-1.239,-0.472,-0.197,-1.091
2.313,-2.169,0.836,-0.279,-0.409,0.052,-0.067,-0.054,0.004,-0.009,0.010,0.099,-0.191,-0.457,-0.213,-1.240,-0.472,-0.183,-1.104
2.337,-1.952,0.883,-0.320,-0.445,0.061,-0.073,-0.063,0.005,-0.011,0.057,0.101,-0.143,-0.457,-0.213,-1.241,-0.464,-0.165,-1.156
2.363,-1.975,0.964,-0.080,-0.487,0.073,-0.080,-0.075,0.007,-0.013,0.077,0.112,-0.078,-0.458,-0.212,-1.242,-0.475,-0.170,-1.095
2.389,-1.765,0.802,0.008,-0.520,0.083,-0.084,-0.084,0.008,-0.014,0.134,0.073,0.068,-0.458,-0.211,-1.243,-0.468,-0.155,-1.157
2.415,-1.815,0.861,0.353,-0.583,0.105,-0.091,-0.104,0.012,-0.018,0.164,0.060,0.117,-0.459,-0.211,-1.244,-0.475,-0.149,-1.153
2.440,-2.230,0.730,0.658,-0.619,0.117,-0.093,-0.116,0.014,-0.019,0.182,0.042,0.155,-0.459,-0.210,-1.245,-0.486,-0.157,-1.089
2.464,-2.365,0.426,0.889,-0.665,0.133,-0.093,-0.132,0.017,-0.022,0.208,-0.001,0.173,-0.459,-0.210,-1.245,-0.478,-0.147,-1.125
2.489,-2.806,0.079,1.259,-0.699,0.144,-0.092,-0.144,0.019,-0.023,0.265,-0.175,0.149,-0.458,-0.209,-1.246,-0.491,-0.158,-1.099
2.516,-2.868,-0.115,1.317,-0.776,0.162,-0.082,-0.172,0.025,-0.027,0.279,-0.219,0.117,-0.458,-0.209,-1.246,-0.493,-0.167,-1.078
2.541,-3.080,-0.099,1.147,-0.818,0.170,-0.074,-0.187,0.028,-0.028,0.227,-0.171,0.057,-0.457,-0.208,-1.246,-0.481,-0.160,-1.125
2.567,-3.770,0.521,1.129,-0.877,0.180,-0.061,-0.209,0.033,-0.030,-0.153,0.111,-0.013,-0.456,-0.208,-1.246,-0.490,-0.168,-1.080
2.591,-3.983,0.729,0.580,-0.926,0.188,-0.051,-0.228,0.037,-0.031,-0.164,0.276,0.000,-0.455,-0.208,-1.246,-0.467,-0.147,-1.124
2.617,-3.173,1.235,-0.886,-1.016,0.204,-0.035,-0.261,0.043,-0.032,-0.022,0.302,0.133,-0.455,-0.208,-1.246,-0.454,-0.120,-1.177
2.642,-2.515,1.373,-1.634,-1.070,0.217,-0.031,-0.281,0.048,-0.033,0.194,0.307,0.323,-0.454,-0.207,-1.246,-0.465,-0.124,-1.134
2.667,-1.871,0.998,-2.181,-1.126,0.230,-0.030,-0.304,0.052,-0.034,0.485,0.182,0.524,-0.453,-0.206,-1.245,-0.461,-0.104,-1.177
2.692,-2.148,0.656,-1.738,-1.188,0.247,-0.035,-0.332,0.058,-0.035,0.307,-0.145,0.454,-0.452,-0.205,-1.245,-0.478,-0.112,-1.140
2.718,-3.323,-0.015,-0.726,-1.279,0.269,-0.046,-0.375,0.067,-0.036,0.049,-0.402,0.303,-0.450,-0.204,-1.243,-0.473,-0.125,-1.137
2.743,-3.324,-0.193,-0.765,-1.333,0.279,-0.054,-0.401,0.072,-0.037,-0.149,0.057,0.082,-0.448,-0.204,-1.241,-0.449,-0.122,-1.190
2.769,-3.379,0.277,-0.915,-1.391,0.289,-0.063,-0.430,0.078,-0.038,-0.111,0.231,0.123,-0.447,-0.203,-1.240,-0.455,-0.128,-1.187
2.794,-1.463,0.886,-2.108,-1.498,0.307,-0.086,-0.486,0.090,-0.041,-0.024,0.340,0.224,-0.446,-0.203,-1.239,-0.443,-0.111,-1.232
2.819,-0.683,0.778,-2.310,-1.551,0.318,-0.102,-0.518,0.097,-0.043,0.026,0.338,0.307,-0.446,-0.202,-1.237,-0.439,-0.097,-1.271
2.844,-0.558,0.644,-2.089,-1.596,0.329,-0.120,-0.548,0.103,-0.045,-0.108,-0.010,0.285,-0.444,-0.200,-1.234,-0.448,-0.102,-1.237
2.870,-0.607,0.434,-1.565,-1.642,0.340,-0.141,-0.582,0.110,-0.048,-0.187,-0.198,0.197,-0.443,-0.200,-1.232,-0.442,-0.098,-1.241
2.894,-0.864,0.586,-0.775,-1.721,0.361,-0.184,-0.650,0.124,-0.054,-0.213,-0.246,0.122,-0.443,-0.199,-1.230,-0.438,-0.107,-1.237
2.919,-0.971,0.744,-0.544,-1.757,0.372,-0.204,-0.684,0.131,-0.058,-0.213,-0.178,0.075,-0.443,-0.199,-1.228,-0.442,-0.117,-1.190
2.945,-0.849,0.799,-0.334,-1.791,0.383,-0.223,-0.720,0.139,-0.063,-0.149,-0.045,0.018,-0.442,-0.198,-1.225,-0.435,-0.109,-1.178
2.972,-0.806,0.937,-0.108,-1.826,0.396,-0.241,-0.758,0.147,-0.067,-0.125,-0.044,-0.018,-0.442,-0.197,-1.223,-0.439,-0.115,-1.147
2.996,-1.204,0.790,0.534,-1.885,0.421,-0.270,-0.830,0.163,-0.077,-0.125,-0.049,-0.059,-0.442,-0.197,-1.221,-0.438,-0.110,-1.125
3.021,-1.487,0.538,0.799,-1.914,0.434,-0.281,-0.868,0.171,-0.083,-0.105,-0.104,-0.109,-0.442,-0.197,-1.220,-0.429,-0.102,-1.159
3.046,-1.923,0.412,1.091,-1.944,0.446,-0.289,-0.907,0.180,-0.089,0.027,-0.257,-0.177,-0.443,-0.197,-1.217,-0.435,-0.108,-1.127
3.071,-2.092,0.109,1.257,-1.977,0.459,-0.294,-0.948,0.190,-0.095,0.078,-0.293,-0.171,-0.443,-0.197,-1.216,-0.424,-0.104,-1.167
3.096,-1.979,0.410,0.887,-2.042,0.480,-0.295,-1.028,0.208,-0.106,0.112,-0.239,-0.154,-0.443,-0.198,-1.215,-0.423,-0.105,-1.189
3.121,-1.902,0.745,0.840,-2.074,0.490,-0.293,-1.067,0.218,-0.112,0.117,-0.132,-0.130,-0.443,-0.198,-1.214,-0.432,-0.110,-1.185
3.146,-1.631,0.635,0.879,-2.108,0.501,-0.289,-1.109,0.228,-0.118,0.045,-0.138,-0.083,-0.443,-0.199,-1.213,-0.425,-0.102,-1.261
3.172,-1.850,-0.151,0.937,-2.142,0.512,-0.284,-1.152,0.238,-0.124,-0.010,-0.304,-0.076,-0.442,-0.200,-1.212,-0.434,-0.107,-1.236
3.196,-3.144,-0.510,1.599,-2.218,0.527,-0.267,-1.243,0.260,-0.135,-0.159,-0.523,-0.159,-0.442,-0.201,-1.211,-0.422,-0.124,-1.261
3.222,-3.038,-0.181,0.806,-2.253,0.531,-0.257,-1.284,0.269,-0.140,-0.310,-0.553,-0.294,-0.442,-0.202,-1.211,-0.398,-0.125,-1.296
3.246,-2.448,0.597,-0.197,-2.294,0.535,-0.247,-1.329,0.280,-0.145,-0.145,0.334,-0.116,-0.443,-0.204,-1.211,-0.400,-0.130,-1.287
3.272,-1.817,0.406,-1.230,-2.337,0.541,-0.239,-1.378,0.291,-0.150,0.053,0.580,0.004,-0.443,-0.205,-1.211,-0.384,-0.113,-1.339
3.297,-2.446,-0.798,-0.143,-2.417,0.550,-0.232,-1.470,0.312,-0.159,0.106,0.239,0.002,-0.444,-0.206,-1.211,-0.377,-0.100,-1.348
3.322,-2.917,-1.039,0.769,-2.457,0.552,-0.229,-1.517,0.323,-0.164,-0.012,-0.475,-0.087,-0.444,-0.207,-1.211,-0.385,-0.111,-1.346
3.347,-2.483,-0.793,0.660,-2.505,0.552,-0.224,-1.571,0.335,-0.169,0.236,0.134,-0.173,-0.445,-0.209,-1.211,-0.367,-0.127,-1.396
3.372,-1.556,-0.019,-0.736,-2.544,0.551,-0.221,-1.617,0.345,-0.173,0.351,0.750,-0.073,-0.445,-0.210,-1.211,-0.380,-0.126,-1.387
3.398,-0.024,0.557,-2.641,-2.623,0.551,-0.223,-1.720,0.367,-0.181,0.239,0.897,-0.071,-0.445,-0.211,-1.211,-0.396,-0.090,-1.392
3.423,-0.244,0.411,-1.947,-2.659,0.552,-0.232,-1.776,0.378,-0.186,0.045,0.649,-0.128,-0.445,-0.211,-1.212,-0.396,-0.071,-1.386
3.447,-0.680,0.083,-1.198,-2.690,0.554,-0.242,-1.829,0.389,-0.191,-0.004,-0.246,-0.238,-0.444,-0.210,-1.212,-0.402,-0.068,-1.402
3.472,-0.659,-0.073,-0.895,-2.720,0.555,-0.254,-1.883,0.401,-0.196,-0.004,-0.246,-0.238,-0.444,-0.210,-1.212,-0.397,-0.069,-1.429
3.497,-0.683,-0.416,-0.973,-2.773,0.556,-0.279,-1.990,0.422,-0.206,0.203,-0.334,-0.239,-0.444,-0.211,-1.214,-0.406,-0.085,-1.417
3.521,-0.895,-0.177,-0.562,-2.800,0.556,-0.293,-2.049,0.434,-0.212,0.056,-0.083,-0.254,-0.444,-0.211,-1.215,-0.415,-0.086,-1.392
3.546,-1.042,-0.145,0.025,-2.825,0.555,-0.306,-2.105,0.445,-0.218,-0.191,0.241,-0.208,-0.443,-0.211,-1.217,-0.405,-0.080,-1.441
3.571,-1.136,-0.070,0.392,-2.849,0.554,-0.317,-2.162,0.456,-0.224,-0.097,0.225,-0.178,-0.443,-0.211,-1.218,-0.409,-0.075,-1.406
3.597,-0.684,-0.121,0.312,-2.896,0.553,-0.333,-2.274,0.478,-0.237,0.049,0.186,-0.127,-0.443,-0.211,-1.219,-0.408,-0.064,-1.411
3.622,-0.424,0.097,0.312,-2.920,0.551,-0.340,-2.338,0.490,-0.245,0.159,0.205,-0.067,-0.443,-0.211,-1.221,-0.408,-0.057,-1.419
3.646,-0.383,0.470,0.401,-2.940,0.551,-0.344,-2.393,0.500,-0.251,0.202,0.396,0.018,-0.442,-0.210,-1.223,-0.418,-0.053,-1.415
3.672,-0.456,0.586,0.632,-2.959,0.552,-0.347,-2.452,0.511,-0.258,0.225,0.464,0.100,-0.442,-0.210,-1.224,-0.419,-0.040,-1.437
3.697,-0.864,0.191,1.117,-2.996,0.556,-0.349,-2.569,0.533,-0.272,0.259,0.386,0.139,-0.441,-0.209,-1.225,-0.429,-0.023,-1.436
3.722,-1.651,-0.951,1.267,-3.017,0.557,-0.345,-2.635,0.545,-0.279,0.280,0.158,0.106,-0.440,-0.207,-1.226,-0.440,-0.022,-1.422
3.746,-2.581,-1.011,2.127,-3.036,0.556,-0.340,-2.689,0.555,-0.285,-0.117,-0.492,-0.193,-0.438,-0.205,-1.228,-0.429,-0.028,-1.451
3.772,-4.137,-0.514,3.125,-3.063,0.554,-0.329,-2.753,0.567,-0.292,-0.528,-0.529,-0.380,-0.438,-0.205,-1.229,-0.432,-0.037,-1.431
3.797,-3.405,1.725,1.019,-3.129,0.551,-0.297,-2.874,0.588,-0.305,-0.601,-0.172,-0.415,-0.437,-0.205,-1.230,-0.393,-0.037,-1.483
3.822,-2.149,1.861,-0.380,-3.173,0.556,-0.279,-2.946,0.601,-0.311,-0.316,0.429,-0.161,-0.437,-0.204,-1.232,-0.371,-0.011,-1.533
3.846,-1.430,1.820,-1.362,-3.207,0.562,-0.267,-3.004,0.611,-0.316,0.275,0.837,0.391,-0.437,-0.202,-1.234,-0.379,0.005,-1.506
3.871,-1.419,0.925,-1.265,-3.244,0.571,-0.259,-3.068,0.623,-0.321,0.172,0.236,0.417,-0.437,-0.201,-1.235,-0.373,0.028,-1.534
3.897,-1.826,0.642,-0.688,-3.318,0.591,-0.248,-3.200,0.646,-0.331,-0.013,-0.264,0.379,-0.437,-0.199,-1.236,-0.368,0.027,-1.548
3.922,-1.676,0.493,-1.320,-3.360,0.602,-0.245,-3.276,0.659,-0.337,0.044,-0.299,0.312,-0.437,-0.198,-1.236,-0.375,0.018,-1.507
3.947,-1.576,0.107,-1.489,-3.391,0.611,-0.246,-3.334,0.670,-0.341,0.177,-0.054,0.342,-0.436,-0.196,-1.236,-0.365,0.016,-1.491
3.974,-1.876,-0.363,-1.350,-3.429,0.620,-0.250,-3.405,0.683,-0.347,-0.001,-0.049,0.231,-0.436,-0.194,-1.236,-0.373,0.011,-1.463
3.999,-1.498,-0.158,-1.199,-3.497,0.632,-0.262,-3.537,0.707,-0.356,0.000,0.028,0.181,-0.435,-0.194,-1.236,-0.364,0.007,-1.488
4.025,-0.657,0.018,-1.625,-3.540,0.638,-0.274,-3.625,0.722,-0.363,0.101,0.125,0.184,-0.434,-0.192,-1.235,-0.360,0.009,-1.515
4.050,-0.340,0.194,-1.729,-3.567,0.642,-0.284,-3.685,0.733,-0.368,0.093,0.101,0.171,-0.434,-0.191,-1.234,-0.367,0.009,-1.502
4.076,0.077,-0.042,-1.426,-3.621,0.651,-0.313,-3.826,0.758,-0.379,0.073,0.009,0.164,-0.433,-0.190,-1.233,-0.376,0.012,-1.480
4.100,0.315,0.025,-0.824,-3.643,0.655,-0.329,-3.895,0.771,-0.385,0.046,-0.104,0.131,-0.433,-0.189,-1.233,-0.380,0.009,-1.451
4.126,0.112,0.111,-0.483,-3.663,0.659,-0.345,-3.968,0.784,-0.392,-0.050,-0.167,0.002,-0.432,-0.187,-1.231,-0.383,0.005,-1.436
4.151,-0.048,0.226,-0.016,-3.684,0.663,-0.362,-4.052,0.799,-0.400,-0.082,-0.137,-0.027,-0.431,-0.187,-1.231,-0.382,0.004,-1.424
4.176,-0.359,0.325,0.430,-3.714,0.671,-0.385,-4.193,0.825,-0.415,-0.054,-0.087,-0.034,-0.431,-0.186,-1.230,-0.380,0.003,-1.425
4.201,-0.618,0.148,0.717,-3.728,0.675,-0.394,-4.263,0.837,-0.422,-0.020,-0.070,-0.013,-0.430,-0.185,-1.229,-0.383,0.001,-1.429
4.226,-0.785,-0.096,1.039,-3.744,0.679,-0.401,-4.342,0.852,-0.430,0.068,-0.160,0.024,-0.430,-0.185,-1.228,-0.378,0.000,-1.438
4.251,-1.208,-0.418,1.370,-3.761,0.683,-0.404,-4.424,0.867,-0.439,0.128,-0.283,0.009,-0.429,-0.185,-1.227,-0.382,-0.003,-1.456
4.276,-1.402,-0.046,1.210,-3.793,0.686,-0.402,-4.568,0.893,-0.454,0.197,-0.321,-0.011,-0.429,-0.185,-1.227,-0.383,-0.017,-1.457
4.301,-0.783,0.655,0.613,-3.810,0.687,-0.398,-4.640,0.906,-0.462,0.255,-0.137,-0.004,-0.428,-0.185,-1.226,-0.382,-0.014,-1.462
4.326,-0.229,0.818,0.162,-3.828,0.690,-0.393,-4.717,0.919,-0.470,0.236,0.221,0.154,-0.426,-0.185,-1.225,-0.391,-0.012,-1.485
4.351,-0.197,-0.217,-0.164,-3.846,0.694,-0.389,-4.805,0.935,-0.479,0.084,-0.086,0.134,-0.425,-0.185,-1.224,-0.395,-0.009,-1.483
4.377,-2.479,-1.043,1.268,-3.878,0.694,-0.380,-4.952,0.962,-0.494,-0.224,-0.555,-0.029,-0.425,-0.185,-1.223,-0.379,-0.027,-1.502
4.402,-2.898,-0.117,1.652,-3.899,0.693,-0.373,-5.025,0.975,-0.501,-0.580,-0.804,-0.220,-0.424,-0.186,-1.223,-0.372,-0.041,-1.509
4.427,-2.118,0.267,0.401,-3.923,0.691,-0.364,-5.104,0.989,-0.508,-0.314,0.046,-0.065,-0.424,-0.188,-1.222,-0.344,-0.047,-1.546
4.452,-1.291,0.152,-0.618,-3.955,0.690,-0.355,-5.202,1.006,-0.517,0.072,0.409,0.173,-0.424,-0.188,-1.222,-0.342,-0.045,-1.534
4.477,-2.194,-1.606,0.509,-4.003,0.685,-0.345,-5.349,1.031,-0.530,0.123,0.057,0.151,-0.424,-0.190,-1.221,-0.340,-0.041,-1.535
4.502,-2.146,-1.480,1.257,-4.030,0.680,-0.339,-5.426,1.044,-0.537,-0.106,-0.540,-0.016,-0.424,-0.190,-1.221,-0.324,-0.058,-1.549
4.527,-1.434,-0.869,0.438,-4.057,0.672,-0.332,-5.502,1.057,-0.543,0.040,-0.233,-0.305,-0.424,-0.193,-1.220,-0.324,-0.070,-1.552
4.552,-0.266,-0.261,-1.355,-4.085,0.664,-0.327,-5.584,1.071,-0.550,0.336,0.452,-0.195,-0.424,-0.194,-1.220,-0.323,-0.075,-1.562
4.576,1.078,0.395,-3.328,-4.131,0.650,-0.329,-5.752,1.098,-0.563,0.414,0.916,-0.088,-0.424,-0.195,-1.220,-0.355,-0.041,-1.513
4.601,1.027,0.647,-3.236,-4.147,0.645,-0.340,-5.831,1.110,-0.569,0.062,0.767,-0.216,-0.424,-0.195,-1.220,-0.360,-0.024,-1.533
4.626,0.548,0.574,-2.175,-4.160,0.643,-0.356,-5.918,1.123,-0.577,-0.269,-0.115,-0.292,-0.423,-0.195,-1.221,-0.362,-0.009,-1.565
4.652,-0.359,-0.111,-0.785,-4.172,0.640,-0.373,-6.002,1.136,-0.584,-0.221,-0.321,-0.276,-0.423,-0.195,-1.221,-0.360,-0.009,-1.555
4.676,-0.644,-0.426,-0.016,-4.194,0.635,-0.404,-6.169,1.162,-0.599,-0.159,-0.281,-0.233,-0.424,-0.196,-1.222,-0.351,-0.019,-1.585
4.703,-0.653,-0.233,0.408,-4.205,0.632,-0.417,-6.249,1.174,-0.607,-0.172,-0.134,-0.202,-0.424,-0.196,-1.223,-0.343,-0.022,-1.594
4.727,-0.599,-0.072,0.498,-4.216,0.629,-0.428,-6.333,1.186,-0.616,-0.108,0.165,-0.111,-0.425,-0.197,-1.225,-0.343,-0.020,-1.560
4.752,-0.251,-0.067,0.367,-4.228,0.625,-0.437,-6.421,1.200,-0.625,0.001,0.215,-0.033,-0.425,-0.197,-1.226,-0.339,-0.015,-1.564
4.776,0.128,-0.113,0.390,-4.248,0.620,-0.451,-6.591,1.224,-0.643,0.070,0.147,0.013,-0.425,-0.197,-1.227,-0.343,-0.008,-1.534
4.801,0.347,0.159,0.450,-4.255,0.617,-0.455,-6.672,1.236,-0.651,0.117,0.117,0.045,-0.426,-0.197,-1.227,-0.346,-0.006,-1.495
4.826,0.444,0.193,0.533,-4.262,0.615,-0.459,-6.757,1.249,-0.660,0.211,0.258,0.188,-0.426,-0.197,-1.229,-0.352,-0.001,-1.451
4.850,0.421,-0.005,0.757,-4.266,0.614,-0.460,-6.842,1.261,-0.669,0.277,0.186,0.225,-0.426,-0.196,-1.230,-0.357,0.003,-1.445
4.874,-0.164,-0.234,0.800,-4.274,0.610,-0.458,-7.017,1.286,-0.688,0.318,-0.024,0.131,-0.426,-0.196,-1.230,-0.370,0.002,-1.422
4.899,-1.083,-0.879,1.177,-4.278,0.607,-0.454,-7.099,1.297,-0.697,0.235,-0.183,-0.018,-0.425,-0.196,-1.230,-0.366,-0.006,-1.439
4.923,-2.175,-0.866,2.523,-4.285,0.602,-0.447,-7.184,1.310,-0.706,-0.032,-0.351,-0.137,-0.425,-0.196,-1.231,-0.365,-0.011,-1.452
4.949,-2.708,-0.027,2.776,-4.296,0.598,-0.436,-7.270,1.322,-0.715,-0.432,-0.407,-0.362,-0.425,-0.196,-1.232,-0.342,-0.017,-1.521
4.973,-2.474,1.661,1.639,-4.313,0.595,-0.419,-7.365,1.335,-0.724,-0.313,0.024,-0.202,-0.425,-0.197,-1.233,-0.333,-0.022,-1.530
4.999,-0.735,1.606,-0.469,-4.348,0.599,-0.390,-7.534,1.358,-0.740,-0.115,0.408,0.087,-0.425,-0.197,-1.234,-0.313,0.004,-1.562
5.023,-0.234,0.968,-0.969,-4.364,0.606,-0.379,-7.616,1.369,-0.747,0.084,0.556,0.392,-0.425,-0.197,-1.235,-0.313,0.023,-1.545
5.048,-0.337,0.182,-0.731,-4.381,0.613,-0.370,-7.708,1.382,-0.755,0.138,-0.038,0.566,-0.426,-0.197,-1.235,-0.317,0.027,-1.513
5.072,-0.825,-0.058,-0.245,-4.396,0.620,-0.364,-7.792,1.394,-0.762,0.023,-0.393,0.418,-0.426,-0.196,-1.235,-0.313,0.023,-1.498
5.096,-1.237,-0.043,-0.297,-4.430,0.631,-0.354,-7.972,1.420,-0.777,-0.016,-0.373,0.275,-0.426,-0.196,-1.235,-0.301,0.005,-1.520
5.120,-1.373,-0.158,-0.417,-4.447,0.636,-0.351,-8.057,1.432,-0.784,-0.024,-0.133,0.217,-0.426,-0.197,-1.234,-0.302,0.001,-1.516
5.145,-1.269,-0.210,-0.618,-4.465,0.639,-0.349,-8.146,1.444,-0.791,-0.015,0.090,0.158,-0.426,-0.197,-1.233,-0.290,-0.000,-1.539
5.170,-0.845,-0.092,-0.918,-4.484,0.643,-0.349,-8.235,1.457,-0.798,0.042,0.136,0.154,-0.426,-0.197,-1.232,-0.291,0.001,-1.533
5.195,0.379,-0.011,-2.090,-4.519,0.647,-0.356,-8.416,1.483,-0.812,0.136,0.241,0.210,-0.426,-0.197,-1.231,-0.294,0.006,-1.518
5.219,0.780,0.068,-2.068,-4.533,0.649,-0.366,-8.511,1.497,-0.819,0.143,0.305,0.228,-0.426,-0.197,-1.230,-0.305,0.011,-1.486
5.244,0.868,0.018,-1.788,-4.542,0.651,-0.378,-8.597,1.509,-0.826,0.007,-0.087,0.094,-0.426,-0.196,-1.228,-0.307,0.013,-1.474
5.269,0.589,0.069,-0.920,-4.550,0.653,-0.391,-8.688,1.522,-0.834,-0.026,-0.170,0.045,-0.426,-0.196,-1.226,-0.312,0.011,-1.480
5.294,0.523,0.006,-0.250,-4.560,0.657,-0.418,-8.870,1.548,-0.850,-0.018,-0.127,0.048,-0.425,-0.196,-1.225,-0.316,0.005,-1.491
5.319,0.531,-0.072,-0.000,-4.563,0.658,-0.431,-8.966,1.562,-0.859,-0.020,-0.031,0.059,-0.425,-0.196,-1.224,-0.316,0.004,-1.490
5.343,0.336,0.007,0.327,-4.565,0.659,-0.442,-9.057,1.575,-0.868,-0.055,0.099,-0.035,-0.425,-0.196,-1.222,-0.318,0.005,-1.481
5.368,0.046,0.105,0.822,-4.566,0.660,-0.450,-9.144,1.588,-0.876,-0.028,0.055,-0.084,-0.425,-0.195,-1.221,-0.317,0.008,-1.461
5.392,-0.168,0.101,1.202,-4.567,0.662,-0.456,-9.253,1.604,-0.887,0.105,-0.040,-0.101,-0.425,-0.195,-1.220,-0.316,0.011,-1.434
5.416,-0.200,-0.343,1.071,-4.570,0.664,-0.459,-9.422,1.628,-0.904,0.279,-0.147,-0.104,-0.425,-0.195,-1.219,-0.321,0.007,-1.427
5.442,-0.301,-0.505,1.046,-4.572,0.664,-0.457,-9.514,1.641,-0.913,0.357,-0.249,-0.125,-0.424,-0.195,-1.218,-0.326,0.004,-1.403
5.467,-0.207,-0.172,0.979,-4.574,0.663,-0.453,-9.605,1.655,-0.922,0.325,-0.270,-0.169,-0.424,-0.195,-1.217,-0.331,-0.001,-1.411
5.492,0.180,0.405,0.595,-4.576,0.662,-0.447,-9.710,1.670,-0.933,0.208,-0.028,-0.194,-0.423,-0.196,-1.217,-0.335,-0.002,-1.421
5.516,-0.167,-0.534,0.530,-4.579,0.662,-0.437,-9.880,1.694,-0.949,0.038,-0.122,-0.199,-0.422,-0.196,-1.216,-0.341,-0.001,-1.424
5.541,-1.095,-0.730,1.340,-4.581,0.660,-0.431,-9.967,1.707,-0.957,-0.270,-0.440,-0.292,-0.421,-0.197,-1.216,-0.327,-0.010,-1.464
5.566,-1.623,-0.219,1.748,-4.586,0.658,-0.422,-10.059,1.720,-0.966,-0.584,-0.297,-0.379,-0.420,-0.199,-1.217,-0.316,-0.019,-1.474
5.590,-1.222,0.410,0.725,-4.593,0.656,-0.410,-10.155,1.734,-0.975,-0.291,0.122,-0.176,-0.420,-0.200,-1.217,-0.296,-0.018,-1.536
5.616,-0.425,-0.252,-0.657,-4.609,0.654,-0.392,-10.334,1.759,-0.990,0.055,0.290,0.010,-0.420,-0.201,-1.218,-0.288,-0.010,-1.539
5.640,-0.950,-1.015,0.171,-4.620,0.652,-0.384,-10.445,1.775,-1.000,0.171,-0.007,0.060,-0.421,-0.201,-1.218,-0.291,-0.010,-1.533
5.666,-1.130,-0.991,0.849,-4.628,0.649,-0.378,-10.519,1.785,-1.006,-0.070,-0.578,-0.128,-0.421,-0.204,-1.219,-0.284,-0.025,-1.550
5.690,-0.902,-0.613,0.549,-4.640,0.644,-0.370,-10.616,1.799,-1.013,0.002,-0.194,-0.153,-0.421,-0.205,-1.220,-0.283,-0.036,-1.549
5.715,0.625,0.252,-1.989,-4.660,0.635,-0.360,-10.798,1.824,-1.028,0.222,0.349,-0.093,-0.421,-0.206,-1.220,-0.287,-0.031,-1.538
5.739,0.835,0.447,-2.579,-4.667,0.631,-0.362,-10.896,1.837,-1.035,0.343,0.635,-0.026,-0.421,-0.207,-1.221,-0.303,-0.013,-1.493
5.763,0.556,0.482,-2.240,-4.671,0.630,-0.368,-10.984,1.849,-1.042,0.269,0.589,-0.059,-0.420,-0.208,-1.221,-0.308,-0.001,-1.515
5.787,0.179,0.316,-1.329,-4.675,0.629,-0.378,-11.083,1.862,-1.050,-0.121,0.121,-0.169,-0.419,-0.208,-1.223,-0.311,0.010,-1.509
5.811,-0.080,-0.120,-0.814,-4.678,0.628,-0.389,-11.185,1.876,-1.058,-0.123,-0.002,-0.119,-0.419,-0.208,-1.224,-0.307,0.014,-1.499
5.836,0.166,-0.792,-0.576,-4.683,0.625,-0.410,-11.359,1.899,-1.073,0.022,-0.005,-0.021,-0.419,-0.209,-1.225,-0.304,0.012,-1.526
5.860,0.219,-0.680,-0.357,-4.685,0.621,-0.420,-11.452,1.912,-1.082,-0.001,0.035,-0.046,-0.418,-0.209,-1.226,-0.306,0.008,-1.522
5.885,0.297,-0.513,0.043,-4.686,0.616,-0.431,-11.551,1.925,-1.090,-0.054,0.155,-0.066,-0.418,-0.209,-1.227,-0.304,0.011,-1.573
5.909,0.409,-0.536,0.231,-4.687,0.611,-0.440,-11.644,1.937,-1.099,0.011,0.193,-0.011,-0.418,-0.209,-1.228,-0.306,0.011,-1.595
5.933,0.726,-0.621,0.204,-4.686,0.605,-0.448,-11.743,1.950,-1.109,0.106,0.188,0.042,-0.418,-0.208,-1.229,-0.307,0.015,-1.608
5.958,1.042,-0.471,0.454,-4.680,0.593,-0.459,-11.921,1.973,-1.126,0.160,0.184,0.062,-0.417,-0.208,-1.230,-0.319,0.019,-1.570
5.982,0.935,-0.141,0.757,-4.674,0.586,-0.462,-12.019,1.985,-1.135,0.187,0.204,0.048,-0.417,-0.207,-1.230,-0.329,0.022,-1.495
6.006,0.654,-0.072,1.367,-4.667,0.580,-0.463,-12.108,1.996,-1.144,0.241,0.182,0.068,-0.416,-0.206,-1.232,-0.332,0.026,-1.488
6.031,0.404,-0.183,1.666,-4.660,0.573,-0.461,-12.206,2.008,-1.154,0.349,0.100,0.064,-0.415,-0.206,-1.232,-0.339,0.029,-1.452
6.056,0.533,-0.406,0.543,-4.645,0.562,-0.450,-12.392,2.031,-1.172,0.434,0.065,0.027,-0.414,-0.205,-1.233,-0.356,0.029,-1.406
6.080,-0.017,-1.020,0.740,-4.637,0.555,-0.443,-12.485,2.042,-1.181,0.282,0.029,-0.039,-0.413,-0.204,-1.233,-0.359,0.031,-1.397
6.106,-1.200,-0.788,1.670,-4.632,0.548,-0.435,-12.573,2.053,-1.189,-0.450,-0.221,-0.417,-0.411,-0.203,-1.234,-0.350,0.028,-1.446
6.130,-2.388,0.057,2.388,-4.631,0.539,-0.422,-12.675,2.065,-1.199,-0.525,-0.224,-0.479,-0.410,-0.202,-1.235,-0.339,0.027,-1.479
6.157,-1.410,1.275,0.912,-4.641,0.531,-0.392,-12.855,2.085,-1.215,-0.235,-0.064,-0.270,-0.409,-0.202,-1.236,-0.310,0.034,-1.583
6.181,-0.142,0.217,-0.838,-4.649,0.529,-0.377,-12.948,2.096,-1.222,0.200,0.140,0.116,-0.409,-0.202,-1.238,-0.313,0.038,-1.535
6.207,-0.379,-0.064,-0.883,-4.656,0.529,-0.365,-13.037,2.106,-1.229,0.169,-0.110,0.268,-0.408,-0.201,-1.239,-0.321,0.039,-1.520
6.232,-0.874,0.367,-0.157,-4.665,0.528,-0.354,-13.144,2.118,-1.238,-0.121,-0.260,0.090,-0.407,-0.200,-1.240,-0.318,0.039,-1.558
6.255,-0.649,0.707,-0.758,-4.684,0.531,-0.340,-13.321,2.138,-1.251,-0.177,-0.144,0.050,-0.407,-0.200,-1.241,-0.306,0.036,-1.623
6.279,-0.435,0.209,-1.209,-4.694,0.534,-0.336,-13.415,2.149,-1.258,-0.056,0.027,0.143,-0.406,-0.200,-1.241,-0.305,0.036,-1.642
6.303,-0.323,-0.267,-1.404,-4.704,0.536,-0.335,-13.509,2.160,-1.264,0.039,0.057,0.257,-0.406,-0.200,-1.242,-0.303,0.033,-1.640
6.329,-0.301,-0.460,-1.342,-4.713,0.538,-0.337,-13.599,2.170,-1.271,0.017,-0.093,0.236,-0.405,-0.200,-1.242,-0.304,0.032,-1.642
6.353,0.060,-0.081,-1.404,-4.730,0.538,-0.348,-13.792,2.192,-1.285,-0.024,-0.067,0.177,-0.404,-0.200,-1.242,-0.303,0.026,-1.646
6.377,0.379,-0.135,-1.691,-4.737,0.538,-0.357,-13.887,2.203,-1.292,-0.005,0.042,0.171,-0.404,-0.200,-1.242,-0.307,0.023,-1.663
6.401,0.557,-0.256,-1.856,-4.742,0.538,-0.368,-13.977,2.213,-1.299,0.073,0.097,0.194,-0.403,-0.199,-1.241,-0.308,0.024,-1.668
6.425,0.502,-0.280,-1.499,-4.746,0.537,-0.382,-14.077,2.224,-1.307,0.060,-0.071,0.128,-0.402,-0.199,-1.241,-0.316,0.021,-1.642
6.449,0.365,-0.185,-0.975,-4.749,0.536,-0.397,-14.172,2.235,-1.314,0.005,-0.134,0.044,-0.402,-0.199,-1.240,-0.317,0.019,-1.624
6.473,0.393,-0.087,-0.675,-4.750,0.534,-0.412,-14.267,2.246,-1.322,0.078,-0.089,0.048,-0.401,-0.199,-1.239,-0.321,0.016,-1.628
6.497,0.948,0.148,-0.633,-4.750,0.532,-0.442,-14.457,2.267,-1.339,0.111,-0.038,0.050,-0.400,-0.199,-1.239,-0.334,0.016,-1.583
6.521,0.850,0.294,-0.160,-4.747,0.532,-0.455,-14.547,2.277,-1.348,0.068,0.031,0.056,-0.400,-0.199,-1.239,-0.335,0.016,-1.556
6.545,0.365,0.103,0.654,-4.742,0.532,-0.469,-14.656,2.289,-1.359,-0.032,-0.032,0.031,-0.399,-0.199,-1.237,-0.338,0.018,-1.616
6.570,-0.056,-0.314,1.262,-4.739,0.532,-0.477,-14.736,2.298,-1.367,0.051,-0.198,0.021,-0.398,-0.199,-1.237,-0.337,0.018,-1.606
6.595,-0.143,-0.711,1.442,-4.733,0.528,-0.484,-14.931,2.320,-1.386,0.160,-0.353,-0.018,-0.397,-0.200,-1.236,-0.340,0.003,-1.601
6.625,0.308,-0.511,1.364,-4.731,0.525,-0.483,-15.025,2.331,-1.396,0.249,-0.153,-0.064,-0.396,-0.201,-1.235,-0.347,-0.007,-1.600
6.654,0.676,-0.893,0.530,-4.723,0.516,-0.476,-15.214,2.351,-1.415,0.194,-0.049,-0.076,-0.395,-0.201,-1.235,-0.361,-0.017,-1.499
6.682,-0.607,-1.106,1.192,-4.718,0.510,-0.471,-15.309,2.362,-1.425,-0.076,-0.176,-0.235,-0.394,-0.202,-1.235,-0.360,-0.018,-1.549
6.711,-1.692,-0.153,1.953,-4.717,0.503,-0.463,-15.398,2.371,-1.434,-0.788,-0.285,-0.712,-0.392,-0.204,-1.235,-0.339,-0.022,-1.669
6.741,-1.037,1.138,1.219,-4.723,0.493,-0.439,-15.592,2.392,-1.452,-0.698,0.064,-0.522,-0.393,-0.205,-1.235,-0.303,-0.010,-1.849
6.770,-0.318,0.309,-0.098,-4.730,0.491,-0.425,-15.696,2.403,-1.462,0.108,0.659,0.238,-0.393,-0.206,-1.237,-0.300,0.002,-1.825
6.800,-0.655,-1.822,-0.709,-4.741,0.487,-0.407,-15.871,2.421,-1.477,0.315,0.348,0.265,-0.394,-0.206,-1.238,-0.312,0.015,-1.749
6.831,-1.340,-1.412,0.535,-4.748,0.481,-0.401,-15.966,2.430,-1.485,-0.266,-0.586,-0.172,-0.394,-0.206,-1.238,-0.307,-0.001,-1.809
6.860,-0.415,0.461,-0.293,-4.766,0.466,-0.387,-16.156,2.449,-1.501,-0.313,-0.461,-0.346,-0.395,-0.207,-1.239,-0.294,-0.015,-1.906
6.887,0.422,0.677,-1.355,-4.776,0.461,-0.382,-16.256,2.459,-1.509,0.018,0.498,-0.160,-0.396,-0.208,-1.241,-0.294,-0.011,-1.902
6.916,0.696,0.224,-1.835,-4.787,0.455,-0.383,-16.443,2.477,-1.524,0.039,0.579,-0.031,-0.396,-0.209,-1.242,-0.302,0.020,-1.801
6.945,0.454,-0.427,-1.480,-4.791,0.452,-0.390,-16.544,2.486,-1.532,-0.022,0.149,0.088,-0.397,-0.208,-1.243,-0.307,0.025,-1.815
6.969,0.257,-0.949,-1.277,-4.793,0.449,-0.398,-16.644,2.496,-1.540,0.009,-0.044,0.087,-0.398,-0.208,-1.244,-0.308,0.028,-1.801
6.996,0.078,-0.962,-0.674,-4.795,0.438,-0.417,-16.826,2.513,-1.556,0.005,-0.115,0.016,-0.398,-0.208,-1.245,-0.313,0.018,-1.813
7.021,0.095,-0.938,-0.483,-4.796,0.430,-0.428,-16.927,2.522,-1.565,-0.051,-0.053,-0.029,-0.399,-0.208,-1.246,-0.314,0.011,-1.809
7.047,0.279,-1.042,-0.463,-4.797,0.421,-0.439,-17.023,2.530,-1.573,-0.026,0.076,-0.055,-0.399,-0.207,-1.247,-0.315,0.013,-1.831
7.073,0.297,-0.979,-0.237,-4.795,0.399,-0.459,-17.215,2.547,-1.591,-0.021,0.079,-0.079,-0.400,-0.207,-1.248,-0.320,0.011,-1.843
7.099,0.162,-0.655,0.211,-4.794,0.388,-0.468,-17.306,2.554,-1.600,-0.076,0.115,-0.094,-0.400,-0.207,-1.249,-0.321,0.010,-1.808
7.126,0.226,-0.157,1.057,-4.793,0.377,-0.475,-17.402,2.562,-1.609,0.065,0.147,0.043,-0.401,-0.206,-1.250,-0.321,0.014,-1.782
7.151,0.382,-0.416,0.939,-4.791,0.366,-0.479,-17.502,2.570,-1.619,0.258,0.175,0.184,-0.402,-0.205,-1.251,-0.326,0.015,-1.671
7.179,0.510,-1.014,0.748,-4.784,0.343,-0.482,-17.694,2.584,-1.639,0.343,0.136,0.216,-0.402,-0.205,-1.251,-0.341,0.013,-1.587
7.206,0.094,-0.865,1.255,-4.780,0.331,-0.480,-17.790,2.591,-1.648,0.137,-0.072,-0.053,-0.402,-0.204,-1.252,-0.347,0.014,-1.632
7.235,-0.568,-0.197,2.103,-4.775,0.308,-0.468,-17.976,2.603,-1.667,0.024,-0.154,-0.151,-0.402,-0.203,-1.253,-0.348,0.009,-1.651
7.263,-0.837,0.139,1.739,-4.774,0.295,-0.454,-18.090,2.610,-1.678,-0.004,-0.084,-0.192,-0.402,-0.203,-1.253,-0.343,0.009,-1.718
7.289,-1.751,0.498,2.140,-4.776,0.287,-0.441,-18.176,2.615,-1.686,-0.461,-0.021,-0.287,-0.402,-0.202,-1.255,-0.340,0.011,-1.663
7.317,-1.560,1.507,1.394,-4.789,0.277,-0.407,-18.358,2.626,-1.702,-0.426,0.054,-0.277,-0.402,-0.201,-1.256,-0.312,0.021,-1.804
7.343,-0.809,1.316,0.228,-4.799,0.277,-0.388,-18.454,2.632,-1.710,-0.059,0.224,-0.077,-0.402,-0.201,-1.257,-0.303,0.033,-1.829
7.368,-0.535,0.917,-0.620,-4.810,0.279,-0.370,-18.555,2.638,-1.718,0.222,-0.101,0.202,-0.403,-0.200,-1.258,-0.310,0.038,-1.755
7.394,-1.203,0.521,-0.096,-4.832,0.286,-0.344,-18.743,2.649,-1.732,-0.011,-0.282,0.195,-0.403,-0.200,-1.259,-0.307,0.029,-1.763
7.420,-0.632,0.661,-1.115,-4.845,0.291,-0.334,-18.840,2.654,-1.739,-0.076,-0.066,0.194,-0.403,-0.199,-1.259,-0.299,0.031,-1.788
7.444,-0.458,0.201,-1.530,-4.858,0.295,-0.328,-18.937,2.660,-1.745,0.084,0.137,0.276,-0.404,-0.198,-1.260,-0.300,0.034,-1.726
7.470,-0.424,-0.082,-1.469,-4.870,0.300,-0.325,-19.039,2.666,-1.752,0.084,0.137,0.276,-0.404,-0.198,-1.260,-0.299,0.034,-1.733
7.499,-0.101,-0.217,-1.338,-4.894,0.307,-0.327,-19.234,2.679,-1.765,0.012,-0.162,0.203,-0.404,-0.198,-1.260,-0.301,0.026,-1.774
7.526,0.460,-0.157,-1.717,-4.903,0.310,-0.333,-19.327,2.684,-1.771,0.081,0.045,0.209,-0.404,-0.197,-1.260,-0.302,0.023,-1.740
7.552,0.753,-0.117,-1.827,-4.911,0.311,-0.342,-19.430,2.691,-1.778,0.078,0.070,0.189,-0.404,-0.197,-1.259,-0.311,0.024,-1.690
7.577,0.580,0.105,-1.026,-4.920,0.315,-0.365,-19.627,2.704,-1.793,0.012,-0.021,0.132,-0.404,-0.196,-1.259,-0.318,0.025,-1.615
7.603,0.687,0.170,-0.890,-4.921,0.316,-0.378,-19.730,2.710,-1.800,-0.021,-0.139,0.075,-0.404,-0.196,-1.258,-0.316,0.022,-1.602
7.629,0.729,0.115,-0.642,-4.922,0.318,-0.392,-19.829,2.716,-1.808,0.027,-0.167,0.054,-0.404,-0.196,-1.257,-0.322,0.019,-1.578
7.656,0.529,0.428,-0.166,-4.919,0.322,-0.415,-20.016,2.729,-1.823,-0.006,-0.100,0.033,-0.404,-0.196,-1.257,-0.325,0.017,-1.573
7.683,0.439,0.375,0.002,-4.915,0.326,-0.429,-20.138,2.737,-1.834,0.045,-0.048,0.006,-0.404,-0.196,-1.256,-0.325,0.016,-1.561
7.709,0.235,0.243,0.334,-4.912,0.328,-0.437,-20.222,2.742,-1.841,0.112,-0.180,0.011,-0.404,-0.197,-1.255,-0.328,0.016,-1.560
7.735,-0.227,-0.101,1.117,-4.906,0.335,-0.450,-20.413,2.755,-1.859,0.136,-0.243,0.007,-0.404,-0.197,-1.254,-0.329,0.008,-1.493
7.761,-0.142,-0.100,1.229,-4.904,0.337,-0.451,-20.507,2.762,-1.867,0.139,-0.281,0.031,-0.404,-0.198,-1.254,-0.329,0.002,-1.488
7.785,0.250,0.205,1.005,-4.903,0.339,-0.451,-20.610,2.769,-1.877,0.202,0.002,0.084,-0.403,-0.199,-1.253,-0.334,-0.000,-1.491
7.811,0.813,0.541,0.573,-4.900,0.342,-0.449,-20.717,2.776,-1.887,0.194,0.090,0.093,-0.402,-0.199,-1.252,-0.335,-0.000,-1.495
7.838,0.487,-0.807,0.635,-4.891,0.347,-0.443,-20.899,2.789,-1.903,0.081,-0.051,0.089,-0.402,-0.200,-1.251,-0.345,0.001,-1.523
7.866,-0.327,-1.485,1.137,-4.887,0.347,-0.438,-21.001,2.796,-1.912,-0.283,-0.445,-0.187,-0.401,-0.202,-1.250,-0.340,-0.014,-1.517
7.891,-0.773,-1.102,1.531,-4.884,0.344,-0.431,-21.099,2.803,-1.921,-0.385,-0.347,-0.376,-0.400,-0.203,-1.250,-0.333,-0.022,-1.540
7.917,-1.014,0.145,0.412,-4.883,0.336,-0.413,-21.289,2.816,-1.937,-0.379,0.066,-0.343,-0.400,-0.204,-1.250,-0.309,-0.024,-1.588
7.943,-1.173,0.249,0.215,-4.886,0.333,-0.404,-21.387,2.823,-1.946,-0.338,0.375,-0.283,-0.400,-0.205,-1.250,-0.294,-0.013,-1.632
7.969,-1.658,-0.102,0.435,-4.893,0.330,-0.394,-21.500,2.831,-1.955,-0.309,0.188,-0.287,-0.401,-0.206,-1.250,-0.288,-0.007,-1.636
7.999,-1.163,-0.809,0.503,-4.910,0.324,-0.377,-21.681,2.843,-1.969,-0.227,-0.375,-0.166,-0.402,-0.207,-1.251,-0.267,-0.021,-1.684
8.024,-0.106,-0.791,-0.383,-4.920,0.318,-0.368,-21.779,2.849,-1.977,0.137,0.378,0.068,-0.403,-0.209,-1.252,-0.265,-0.027,-1.661
8.052,1.314,-0.351,-2.216,-4.929,0.312,-0.363,-21.883,2.856,-1.984,0.268,0.622,0.060,-0.404,-0.210,-1.252,-0.267,-0.020,-1.614
8.077,1.537,0.560,-3.013,-4.935,0.302,-0.369,-22.080,2.868,-1.999,0.258,0.691,-0.032,-0.404,-0.210,-1.252,-0.293,0.010,-1.532
8.102,0.655,0.463,-2.191,-4.934,0.299,-0.380,-22.179,2.874,-2.006,0.057,0.549,-0.145,-0.405,-0.210,-1.253,-0.300,0.026,-1.510
8.128,-0.176,0.210,-1.121,-4.932,0.297,-0.394,-22.277,2.880,-2.014,-0.325,-0.227,-0.315,-0.405,-0.209,-1.254,-0.293,0.032,-1.529
8.154,-0.549,-0.086,-0.325,-4.931,0.295,-0.421,-22.470,2.892,-2.030,-0.299,-0.434,-0.271,-0.406,-0.209,-1.255,-0.276,0.023,-1.580
8.179,-0.135,-0.507,-0.647,-4.933,0.293,-0.434,-22.573,2.898,-2.039,-0.217,-0.412,-0.150,-0.407,-0.209,-1.256,-0.270,0.012,-1.595
8.207,0.393,-0.778,-1.285,-4.933,0.290,-0.448,-22.672,2.904,-2.048,0.023,-0.111,0.104,-0.409,-0.210,-1.258,-0.269,0.007,-1.580
8.235,0.826,-0.493,-0.775,-4.931,0.281,-0.478,-22.864,2.915,-2.066,-0.033,-0.076,0.086,-0.409,-0.210,-1.259,-0.275,-0.003,-1.548
8.261,0.902,-0.263,-0.219,-4.928,0.276,-0.492,-22.963,2.920,-2.076,-0.155,-0.066,0.039,-0.410,-0.210,-1.259,-0.279,-0.006,-1.544
8.287,1.085,-0.308,0.183,-4.922,0.271,-0.506,-23.066,2.926,-2.086,-0.189,0.090,0.076,-0.412,-0.211,-1.261,-0.271,-0.006,-1.564
8.315,1.443,0.021,1.078,-4.907,0.261,-0.526,-23.263,2.937,-2.107,-0.137,0.105,0.081,-0.413,-0.212,-1.261,-0.271,-0.004,-1.541
8.343,1.245,0.197,0.640,-4.896,0.256,-0.532,-23.361,2.942,-2.117,-0.040,0.151,0.093,-0.414,-0.212,-1.262,-0.280,-0.000,-1.475
8.368,0.632,0.210,0.411,-4.884,0.253,-0.536,-23.459,2.947,-2.128,-0.045,0.128,-0.032,-0.417,-0.212,-1.263,-0.277,0.004,-1.481
8.394,-1.041,-0.596,2.290,-4.865,0.247,-0.538,-23.649,2.957,-2.149,-0.264,-0.111,-0.123,-0.418,-0.212,-1.263,-0.266,0.004,-1.506
8.419,-1.841,-0.195,3.317,-4.860,0.242,-0.530,-23.756,2.962,-2.161,-0.500,-0.354,-0.208,-0.419,-0.212,-1.264,-0.246,-0.002,-1.587
8.447,-2.184,0.320,3.241,-4.860,0.239,-0.518,-23.848,2.967,-2.171,-0.457,-0.222,-0.194,-0.422,-0.213,-1.265,-0.232,-0.009,-1.625
8.472,-1.993,0.758,2.124,-4.864,0.237,-0.502,-23.945,2.972,-2.181,-0.231,0.077,-0.016,-0.425,-0.214,-1.267,-0.211,-0.009,-1.665
8.498,-0.702,0.605,0.106,-4.878,0.238,-0.467,-24.135,2.981,-2.200,-0.079,0.261,0.184,-0.426,-0.215,-1.267,-0.198,0.001,-1.661
8.524,-0.450,-0.360,-0.293,-4.887,0.240,-0.449,-24.248,2.986,-2.210,-0.040,-0.065,0.492,-0.430,-0.215,-1.268,-0.197,0.004,-1.643
8.549,-0.416,-0.995,0.243,-4.894,0.240,-0.437,-24.331,2.990,-2.218,-0.236,-0.323,0.376,-0.432,-0.216,-1.268,-0.193,-0.006,-1.608
8.573,-0.612,-0.771,1.055,-4.903,0.239,-0.423,-24.429,2.995,-2.226,-0.321,-0.319,0.198,-0.435,-0.216,-1.268,-0.187,-0.014,-1.593
8.597,0.121,0.313,-0.644,-4.920,0.235,-0.397,-24.625,3.005,-2.243,-0.166,-0.005,0.137,-0.437,-0.217,-1.268,-0.173,-0.021,-1.637
8.621,0.424,0.116,-1.634,-4.927,0.234,-0.388,-24.724,3.009,-2.251,0.022,0.302,0.219,-0.439,-0.217,-1.267,-0.178,-0.015,-1.604
8.644,0.511,-0.136,-2.030,-4.932,0.233,-0.383,-24.827,3.014,-2.259,0.031,0.225,0.200,-0.443,-0.218,-1.266,-0.178,-0.008,-1.591
8.667,0.282,-0.274,-1.108,-4.936,0.231,-0.382,-24.921,3.019,-2.266,-0.081,-0.083,0.109,-0.445,-0.218,-1.266,-0.182,-0.006,-1.596
8.690,0.152,-0.405,-0.427,-4.939,0.229,-0.383,-25.024,3.023,-2.274,-0.120,-0.265,0.053,-0.447,-0.218,-1.265,-0.179,-0.008,-1.595
8.714,0.540,-0.041,-0.843,-4.943,0.224,-0.387,-25.217,3.032,-2.289,-0.040,-0.200,0.035,-0.449,-0.218,-1.264,-0.176,-0.019,-1.607
8.743,0.743,-0.048,-1.171,-4.943,0.222,-0.392,-25.326,3.037,-2.298,0.079,-0.012,0.040,-0.451,-0.219,-1.264,-0.185,-0.020,-1.588
8.771,0.890,-0.105,-0.925,-4.941,0.219,-0.399,-25.440,3.042,-2.307,0.122,-0.015,0.024,-0.454,-0.219,-1.262,-0.186,-0.018,-1.585
8.799,0.926,0.031,-0.432,-4.934,0.215,-0.413,-25.622,3.050,-2.322,0.095,-0.111,-0.015,-0.456,-0.220,-1.261,-0.197,-0.021,-1.560
8.829,0.889,0.168,-0.232,-4.928,0.213,-0.420,-25.716,3.054,-2.330,0.144,-0.071,-0.039,-0.458,-0.220,-1.260,-0.206,-0.022,-1.559
8.856,0.803,0.145,-0.056,-4.913,0.211,-0.433,-25.908,3.063,-2.346,0.186,-0.048,-0.027,-0.459,-0.221,-1.260,-0.218,-0.022,-1.554
8.881,0.722,0.056,0.125,-4.904,0.211,-0.439,-26.011,3.067,-2.355,0.231,-0.082,-0.009,-0.460,-0.221,-1.259,-0.221,-0.023,-1.553
8.908,0.499,-0.136,0.505,-4.895,0.210,-0.443,-26.104,3.071,-2.364,0.269,-0.281,-0.055,-0.462,-0.223,-1.258,-0.231,-0.027,-1.557
8.934,-0.094,-0.142,1.445,-4.878,0.209,-0.446,-26.304,3.080,-2.382,0.260,-0.357,-0.081,-0.462,-0.223,-1.258,-0.239,-0.039,-1.541
8.959,0.353,0.372,0.711,-4.871,0.208,-0.443,-26.402,3.084,-2.391,0.272,-0.235,-0.078,-0.462,-0.224,-1.257,-0.243,-0.043,-1.547
8.984,0.443,0.268,-0.080,-4.863,0.209,-0.440,-26.499,3.088,-2.400,0.051,0.020,-0.083,-0.462,-0.226,-1.257,-0.252,-0.041,-1.561
9.010,0.179,-0.524,0.201,-4.856,0.209,-0.438,-26.596,3.092,-2.409,-0.385,-0.206,-0.167,-0.463,-0.227,-1.256,-0.252,-0.040,-1.572
9.037,-1.441,-0.150,2.893,-4.846,0.205,-0.426,-26.790,3.100,-2.426,-0.850,-0.386,-0.324,-0.463,-0.229,-1.256,-0.223,-0.053,-1.636
9.063,-1.023,0.399,1.646,-4.845,0.204,-0.414,-26.887,3.105,-2.434,-0.919,-0.182,-0.378,-0.464,-0.230,-1.257,-0.198,-0.052,-1.675
9.089,-0.107,0.784,-0.123,-4.846,0.204,-0.401,-26.984,3.109,-2.442,-0.022,0.788,0.095,-0.467,-0.232,-1.257,-0.188,-0.044,-1.679
9.116,0.340,-0.122,-1.498,-4.846,0.206,-0.386,-27.173,3.117,-2.458,0.210,0.502,0.180,-0.468,-0.232,-1.258,-0.196,-0.013,-1.650
9.143,-0.593,-1.197,0.292,-4.846,0.206,-0.382,-27.270,3.121,-2.465,-0.200,-0.823,-0.024,-0.471,-0.233,-1.258,-0.193,-0.027,-1.619
9.169,-1.146,-1.325,1.851,-4.847,0.203,-0.375,-27.377,3.125,-2.474,-0.255,-0.943,-0.203,-0.472,-0.234,-1.258,-0.188,-0.043,-1.614
9.194,-0.298,-0.357,0.448,-4.855,0.194,-0.356,-27.561,3.133,-2.488,0.026,-0.520,-0.283,-0.473,-0.236,-1.259,-0.176,-0.076,-1.634
9.220,0.610,-0.090,-1.561,-4.859,0.188,-0.348,-27.658,3.137,-2.495,0.403,0.180,-0.176,-0.475,-0.238,-1.259,-0.191,-0.072,-1.650
9.247,1.200,-0.160,-2.472,-4.861,0.183,-0.344,-27.760,3.140,-2.502,0.310,0.778,-0.027,-0.476,-0.240,-1.260,-0.200,-0.058,-1.666
9.272,1.173,-0.007,-2.118,-4.860,0.177,-0.345,-27.872,3.145,-2.510,0.100,0.542,-0.108,-0.477,-0.240,-1.261,-0.219,-0.040,-1.668
9.297,0.726,-0.461,-1.247,-4.854,0.169,-0.356,-28.052,3.151,-2.523,0.044,0.149,-0.169,-0.477,-0.240,-1.261,-0.230,-0.028,-1.660
9.323,0.573,-0.980,-1.150,-4.849,0.164,-0.364,-28.144,3.154,-2.530,0.128,-0.182,-0.147,-0.478,-0.241,-1.262,-0.232,-0.030,-1.645
9.347,0.238,-0.890,-0.736,-4.844,0.157,-0.374,-28.241,3.157,-2.537,0.122,-0.297,-0.169,-0.478,-0.241,-1.263,-0.239,-0.043,-1.634
9.371,-0.012,-0.373,0.119,-4.838,0.149,-0.385,-28.352,3.161,-2.546,-0.064,-0.110,-0.217,-0.478,-0.242,-1.264,-0.241,-0.048,-1.643
9.396,0.087,-0.261,0.915,-4.831,0.136,-0.397,-28.531,3.166,-2.560,-0.153,0.097,-0.182,-0.478,-0.243,-1.265,-0.236,-0.046,-1.664
9.421,0.567,-0.412,0.381,-4.826,0.129,-0.400,-28.633,3.169,-2.569,-0.001,0.233,-0.065,-0.479,-0.243,-1.267,-0.241,-0.043,-1.665
9.452,0.873,-0.545,-0.179,-4.821,0.122,-0.402,-28.724,3.171,-2.576,0.424,0.292,0.067,-0.479,-0.244,-1.268,-0.246,-0.037,-1.698
9.482,0.738,-0.033,0.234,-4.807,0.107,-0.408,-28.926,3.176,-2.593,0.393,0.276,0.064,-0.478,-0.243,-1.270,-0.271,-0.027,-1.673
9.511,0.416,0.013,0.631,-4.798,0.100,-0.409,-29.032,3.178,-2.602,0.233,0.303,0.068,-0.478,-0.243,-1.271,-0.279,-0.022,-1.673
9.536,-0.015,-0.338,1.193,-4.785,0.090,-0.407,-29.209,3.182,-2.617,0.246,0.119,0.087,-0.477,-0.243,-1.272,-0.289,-0.015,-1.683
9.563,-0.142,-0.258,1.555,-4.779,0.084,-0.402,-29.300,3.184,-2.625,0.180,0.000,0.046,-0.476,-0.242,-1.272,-0.293,-0.015,-1.707
9.588,-0.091,0.064,1.229,-4.772,0.078,-0.394,-29.410,3.185,-2.634,0.012,0.252,0.068,-0.474,-0.241,-1.274,-0.294,-0.014,-1.716
9.614,-1.133,0.320,1.057,-4.767,0.070,-0.376,-29.587,3.188,-2.648,-0.112,0.274,0.077,-0.473,-0.240,-1.274,-0.284,-0.003,-1.736
9.639,-1.195,0.690,0.393,-4.767,0.068,-0.366,-29.682,3.190,-2.656,-0.138,0.115,0.056,-0.472,-0.239,-1.275,-0.282,-0.000,-1.729
9.668,-0.810,0.693,-0.403,-4.770,0.067,-0.357,-29.782,3.191,-2.663,0.128,-0.082,0.176,-0.471,-0.238,-1.275,-0.274,0.004,-1.733
9.696,-1.543,-0.375,0.250,-4.779,0.067,-0.343,-29.968,3.194,-2.677,-0.034,-0.370,0.164,-0.470,-0.237,-1.275,-0.265,-0.010,-1.736
9.721,-2.022,0.317,1.205,-4.789,0.066,-0.336,-30.069,3.195,-2.684,-0.420,-0.511,-0.007,-0.470,-0.237,-1.276,-0.258,-0.020,-1.760
9.747,-1.726,1.017,0.914,-4.800,0.067,-0.328,-30.160,3.196,-2.691,-0.507,0.142,-0.130,-0.469,-0.237,-1.276,-0.230,-0.021,-1.805
9.772,-0.828,1.348,-0.381,-4.814,0.070,-0.320,-30.261,3.198,-2.697,-0.235,0.525,0.082,-0.470,-0.236,-1.276,-0.222,-0.017,-1.812
9.800,0.301,0.269,-2.050,-4.840,0.082,-0.312,-30.463,3.201,-2.711,-0.115,0.640,0.286,-0.470,-0.236,-1.276,-0.214,0.013,-1.807
9.824,0.341,-0.107,-1.630,-4.848,0.087,-0.315,-30.551,3.202,-2.716,-0.260,0.281,0.367,-0.471,-0.234,-1.276,-0.214,0.022,-1.796
9.849,0.460,-0.334,-1.223,-4.856,0.091,-0.320,-30.643,3.204,-2.722,-0.158,0.056,0.368,-0.472,-0.232,-1.276,-0.210,0.026,-1.788
9.874,0.667,-0.964,-1.292,-4.866,0.095,-0.336,-30.842,3.208,-2.736,0.043,-0.114,0.343,-0.473,-0.231,-1.275,-0.217,0.020,-1.779
9.899,0.371,-0.485,-0.749,-4.869,0.095,-0.346,-30.940,3.210,-2.742,0.158,-0.272,0.233,-0.473,-0.230,-1.274,-0.225,0.011,-1.769
9.927,0.075,0.018,-0.157,-4.870,0.094,-0.356,-31.037,3.212,-2.750,0.032,-0.325,-0.077,-0.474,-0.229,-1.272,-0.228,0.004,-1.767
9.954,0.676,0.210,-0.601,-4.872,0.093,-0.374,-31.227,3.215,-2.764,0.077,-0.200,-0.073,-0.475,-0.228,-1.272,-0.232,-0.003,-1.757
9.980,0.886,0.044,-0.818,-4.871,0.094,-0.384,-31.329,3.217,-2.772,0.177,0.040,0.033,-0.475,-0.228,-1.271,-0.245,-0.000,-1.744
10.006,0.794,-0.114,-0.319,-4.868,0.094,-0.395,-31.431,3.219,-2.780,0.066,0.330,0.095,-0.476,-0.227,-1.269,-0.249,0.005,-1.756
10.034,0.124,0.005,0.926,-4.861,0.094,-0.409,-31.616,3.223,-2.795,0.017,0.231,0.009,-0.476,-0.226,-1.268,-0.255,0.016,-1.733
10.058,-0.214,-0.211,1.088,-4.857,0.093,-0.414,-31.718,3.225,-2.804,0.075,0.020,-0.095,-0.476,-0.226,-1.268,-0.255,0.016,-1.743
10.087,-0.327,-0.255,1.374,-4.855,0.093,-0.415,-31.815,3.227,-2.812,0.226,-0.324,-0.159,-0.476,-0.224,-1.266,-0.259,0.013,-1.742
10.117,0.455,-0.071,0.976,-4.851,0.090,-0.409,-32.010,3.230,-2.829,0.183,-0.305,-0.155,-0.476,-0.224,-1.266,-0.265,0.001,-1.741
10.141,0.908,-0.222,0.298,-4.848,0.088,-0.404,-32.107,3.232,-2.837,0.238,-0.161,-0.116,-0.475,-0.224,-1.266,-0.278,-0.002,-1.753
10.166,0.514,-0.793,0.583,-4.844,0.086,-0.399,-32.199,3.234,-2.844,-0.294,-0.382,-0.161,-0.474,-0.224,-1.265,-0.280,-0.004,-1.775
10.189,-0.357,-1.337,1.523,-4.840,0.081,-0.391,-32.300,3.235,-2.853,-0.494,-0.578,-0.345,-0.474,-0.224,-1.265,-0.273,-0.018,-1.793
10.213,-1.076,-0.150,1.833,-4.840,0.069,-0.368,-32.489,3.238,-2.868,-0.474,-0.568,-0.513,-0.475,-0.225,-1.265,-0.248,-0.038,-1.821
10.237,-0.651,0.477,0.128,-4.842,0.063,-0.354,-32.586,3.240,-2.875,-0.216,-0.265,-0.527,-0.475,-0.226,-1.266,-0.245,-0.040,-1.819
10.260,-0.196,0.714,-1.273,-4.846,0.059,-0.342,-32.688,3.241,-2.882,0.083,0.117,-0.413,-0.476,-0.227,-1.267,-0.243,-0.030,-1.818
10.284,-0.402,0.638,-1.211,-4.849,0.056,-0.334,-32.785,3.242,-2.889,-0.130,0.043,-0.198,-0.476,-0.229,-1.269,-0.246,-0.024,-1.836
10.310,-1.190,-0.229,0.058,-4.854,0.055,-0.327,-32.891,3.243,-2.896,-0.277,-0.250,-0.120,-0.477,-0.229,-1.270,-0.234,-0.026,-1.846
10.333,-0.841,-0.691,0.075,-4.869,0.049,-0.316,-33.076,3.245,-2.908,-0.147,-0.319,-0.105,-0.477,-0.230,-1.271,-0.220,-0.042,-1.862
10.360,-0.012,-0.452,-1.306,-4.877,0.045,-0.311,-33.174,3.246,-2.915,0.101,-0.072,-0.094,-0.478,-0.231,-1.272,-0.223,-0.042,-1.869
10.388,0.541,-0.129,-2.441,-4.885,0.040,-0.311,-33.276,3.247,-2.921,0.215,0.507,-0.100,-0.479,-0.233,-1.275,-0.236,-0.035,-1.868
10.412,1.006,0.147,-2.853,-4.889,0.037,-0.316,-33.369,3.248,-2.927,0.043,0.500,-0.112,-0.479,-0.233,-1.276,-0.241,-0.024,-1.868
10.436,0.284,0.032,-1.388,-4.893,0.031,-0.339,-33.560,3.249,-2.940,-0.193,0.323,-0.125,-0.479,-0.233,-1.277,-0.247,-0.001,-1.866
10.462,-0.081,-0.173,-0.254,-4.894,0.028,-0.352,-33.658,3.250,-2.947,-0.358,0.075,-0.115,-0.480,-0.233,-1.279,-0.240,0.000,-1.876
10.486,0.088,-0.319,-0.186,-4.895,0.025,-0.366,-33.765,3.250,-2.955,-0.031,-0.194,-0.046,-0.481,-0.233,-1.281,-0.234,-0.002,-1.878
10.511,0.915,-0.253,-0.548,-4.894,0.022,-0.378,-33.858,3.251,-2.962,0.066,-0.122,-0.023,-0.481,-0.233,-1.283,-0.243,-0.004,-1.875
10.536,0.497,-0.503,1.053,-4.890,0.015,-0.398,-34.049,3.252,-2.977,-0.073,-0.076,-0.009,-0.482,-0.233,-1.284,-0.248,-0.009,-1.883
10.563,0.223,-0.640,1.378,-4.886,0.010,-0.404,-34.147,3.252,-2.985,-0.205,-0.035,-0.001,-0.483,-0.234,-1.285,-0.244,-0.009,-1.888
10.588,0.616,-0.624,1.052,-4.882,0.005,-0.406,-34.249,3.252,-2.993,0.147,0.103,0.021,-0.484,-0.234,-1.288,-0.248,-0.011,-1.881
10.612,0.767,-0.647,0.283,-4.877,-0.001,-0.407,-34.342,3.252,-3.001,0.378,0.265,0.078,-0.485,-0.234,-1.289,-0.251,-0.008,-1.884
10.636,0.672,-0.596,-0.020,-4.864,-0.015,-0.409,-34.537,3.252,-3.017,0.426,0.358,0.121,-0.485,-0.234,-1.290,-0.276,0.002,-1.859
10.661,0.300,-0.422,0.387,-4.857,-0.023,-0.409,-34.634,3.251,-3.026,0.359,0.359,0.144,-0.485,-0.234,-1.291,-0.287,0.007,-1.846
10.687,-0.208,-0.343,0.931,-4.850,-0.031,-0.408,-34.736,3.251,-3.034,0.252,0.132,0.126,-0.485,-0.232,-1.292,-0.293,0.012,-1.831
10.713,-0.427,-0.268,1.454,-4.841,-0.046,-0.400,-34.925,3.249,-3.050,0.265,0.013,0.138,-0.484,-0.232,-1.293,-0.300,0.011,-1.823
10.738,-0.307,-0.475,1.061,-4.838,-0.053,-0.393,-35.027,3.248,-3.058,0.264,-0.004,0.173,-0.484,-0.231,-1.293,-0.303,0.007,-1.808
10.764,-0.609,-0.918,0.827,-4.836,-0.061,-0.384,-35.123,3.247,-3.066,-0.213,-0.075,0.077,-0.482,-0.230,-1.294,-0.308,0.007,-1.782
10.788,-1.534,-0.708,1.564,-4.837,-0.070,-0.374,-35.220,3.246,-3.074,-0.421,-0.326,-0.143,-0.482,-0.230,-1.294,-0.293,-0.002,-1.779
10.815,-1.416,1.073,1.276,-4.847,-0.084,-0.347,-35.409,3.243,-3.088,-0.268,-0.292,-0.144,-0.481,-0.229,-1.295,-0.267,-0.007,-1.781
10.840,-0.867,0.670,0.283,-4.857,-0.088,-0.330,-35.516,3.241,-3.095,0.066,-0.057,0.057,-0.481,-0.229,-1.295,-0.268,-0.008,-1.774
10.864,-0.914,0.070,0.222,-4.866,-0.090,-0.316,-35.608,3.239,-3.101,-0.027,-0.265,0.173,-0.481,-0.229,-1.295,-0.263,-0.012,-1.780
10.889,-1.029,0.320,0.525,-4.876,-0.092,-0.302,-35.705,3.237,-3.107,-0.161,-0.112,0.092,-0.480,-0.229,-1.295,-0.262,-0.018,-1.774
10.915,-0.335,0.689,-1.001,-4.898,-0.092,-0.279,-35.896,3.234,-3.119,-0.089,0.271,0.121,-0.480,-0.229,-1.295,-0.250,-0.011,-1.777
10.939,-0.050,0.435,-1.822,-4.909,-0.090,-0.272,-35.999,3.232,-3.125,0.061,0.513,0.211,-0.480,-0.229,-1.295,-0.249,0.004,-1.774
10.964,0.021,0.012,-2.033,-4.918,-0.088,-0.270,-36.092,3.230,-3.130,0.153,0.442,0.272,-0.480,-0.229,-1.295,-0.253,0.012,-1.769
10.989,-0.042,-0.446,-1.833,-4.927,-0.086,-0.273,-36.201,3.228,-3.136,0.122,-0.139,0.248,-0.479,-0.227,-1.294,-0.256,0.008,-1.750
11.012,0.068,-0.506,-1.766,-4.934,-0.086,-0.278,-36.294,3.227,-3.141,0.126,-0.175,0.173,-0.479,-0.227,-1.293,-0.258,0.004,-1.739
11.036,0.222,-0.251,-1.605,-4.946,-0.087,-0.296,-36.487,3.223,-3.152,0.099,-0.086,0.103,-0.478,-0.226,-1.293,-0.266,-0.006,-1.724
11.064,0.192,-0.001,-1.463,-4.951,-0.089,-0.309,-36.586,3.221,-3.158,0.062,-0.001,-0.011,-0.477,-0.226,-1.291,-0.269,-0.006,-1.708
11.096,0.452,0.105,-1.486,-4.957,-0.091,-0.340,-36.789,3.218,-3.171,0.114,-0.040,-0.018,-0.477,-0.225,-1.290,-0.274,-0.005,-1.695
11.126,0.873,0.265,-1.325,-4.958,-0.091,-0.357,-36.888,3.216,-3.178,0.116,-0.064,-0.022,-0.475,-0.225,-1.289,-0.274,-0.006,-1.700
11.154,0.743,0.363,0.359,-4.955,-0.090,-0.389,-37.081,3.212,-3.193,0.033,-0.077,-0.020,-0.475,-0.225,-1.289,-0.282,-0.005,-1.689
11.181,0.427,0.060,0.992,-4.951,-0.089,-0.403,-37.186,3.211,-3.201,-0.004,-0.128,-0.018,-0.474,-0.225,-1.288,-0.285,-0.006,-1.683
11.210,0.292,-0.373,0.795,-4.948,-0.088,-0.412,-37.285,3.209,-3.209,0.255,-0.302,0.028,-0.473,-0.225,-1.287,-0.284,-0.011,-1.677
11.239,0.306,-0.606,0.673,-4.940,-0.089,-0.426,-37.482,3.205,-3.226,0.357,-0.252,0.010,-0.472,-0.225,-1.286,-0.296,-0.026,-1.668
11.268,0.149,-0.388,1.090,-4.935,-0.092,-0.430,-37.586,3.203,-3.235,0.021,-0.108,-0.117,-0.469,-0.226,-1.285,-0.303,-0.031,-1.665
11.296,0.399,-0.098,1.427,-4.927,-0.097,-0.429,-37.773,3.200,-3.251,-0.123,0.004,-0.100,-0.468,-0.227,-1.285,-0.301,-0.031,-1.669
11.326,0.280,-0.664,0.593,-4.922,-0.100,-0.424,-37.877,3.198,-3.260,0.005,-0.122,-0.022,-0.466,-0.228,-1.285,-0.297,-0.030,-1.666
11.353,-1.293,-0.193,1.479,-4.916,-0.109,-0.414,-38.073,3.194,-3.277,-0.134,-0.382,-0.126,-0.466,-0.228,-1.284,-0.294,-0.046,-1.665
11.379,-1.835,0.956,3.238,-4.917,-0.113,-0.404,-38.172,3.191,-3.285,-1.093,-0.534,-0.458,-0.465,-0.229,-1.284,-0.261,-0.049,-1.684
11.408,-1.821,0.938,2.777,-4.921,-0.114,-0.389,-38.265,3.189,-3.293,-0.445,0.338,0.130,-0.466,-0.231,-1.285,-0.241,-0.050,-1.696
11.436,-0.830,-0.529,0.005,-4.936,-0.114,-0.355,-38.462,3.185,-3.308,0.081,0.446,0.247,-0.467,-0.232,-1.285,-0.225,-0.035,-1.703
11.463,-0.870,-0.699,-0.162,-4.947,-0.116,-0.338,-38.576,3.182,-3.316,0.319,0.076,0.088,-0.467,-0.233,-1.285,-0.224,-0.040,-1.697
11.490,-0.758,-0.402,-0.138,-4.957,-0.118,-0.324,-38.675,3.180,-3.322,0.062,-0.105,-0.153,-0.468,-0.234,-1.285,-0.229,-0.045,-1.687
11.520,0.490,0.173,-1.999,-4.974,-0.123,-0.307,-38.859,3.175,-3.334,0.084,0.432,-0.056,-0.468,-0.234,-1.285,-0.230,-0.038,-1.679
11.547,0.952,0.230,-2.701,-4.981,-0.125,-0.305,-38.963,3.173,-3.340,0.130,0.922,0.073,-0.468,-0.234,-1.285,-0.245,-0.016,-1.669
11.577,1.029,0.371,-2.509,-4.985,-0.126,-0.318,-39.163,3.167,-3.353,0.005,0.699,0.040,-0.468,-0.233,-1.285,-0.261,0.023,-1.649
11.604,0.581,0.061,-1.364,-4.984,-0.126,-0.330,-39.262,3.165,-3.359,-0.227,-0.027,0.002,-0.468,-0.231,-1.285,-0.258,0.030,-1.634
11.632,0.158,-0.580,-0.567,-4.981,-0.126,-0.356,-39.457,3.160,-3.373,-0.138,-0.252,-0.006,-0.469,-0.230,-1.285,-0.256,0.027,-1.608
11.661,0.038,-0.613,-0.185,-4.979,-0.129,-0.369,-39.561,3.157,-3.380,-0.084,-0.274,-0.024,-0.469,-0.229,-1.285,-0.252,0.011,-1.606
11.688,0.062,-0.645,0.277,-4.977,-0.132,-0.381,-39.666,3.155,-3.388,-0.127,0.011,0.017,-0.470,-0.228,-1.285,-0.250,0.009,-1.605
11.716,0.502,-0.884,0.380,-4.973,-0.141,-0.398,-39.860,3.149,-3.403,-0.059,0.119,0.040,-0.471,-0.227,-1.285,-0.248,0.006,-1.605
11.747,0.811,-0.928,0.255,-4.970,-0.147,-0.404,-39.954,3.147,-3.411,0.114,0.140,0.029,-0.471,-0.225,-1.285,-0.257,0.001,-1.588
11.775,1.027,-0.260,0.631,-4.958,-0.162,-0.412,-40.158,3.140,-3.428,0.121,0.134,-0.015,-0.472,-0.224,-1.285,-0.263,0.004,-1.566
11.803,1.199,-0.093,0.498,-4.950,-0.170,-0.414,-40.257,3.137,-3.436,0.133,0.187,-0.028,-0.472,-0.224,-1.285,-0.259,0.008,-1.562
11.831,1.129,-0.098,0.702,-4.940,-0.176,-0.414,-40.356,3.133,-3.444,0.230,0.220,0.081,-0.472,-0.221,-1.285,-0.272,0.012,-1.543
11.859,0.549,-0.196,1.398,-4.919,-0.189,-0.410,-40.553,3.126,-3.461,0.225,0.094,0.081,-0.472,-0.220,-1.285,-0.280,0.017,-1.530
11.887,0.362,-0.555,1.418,-4.907,-0.196,-0.403,-40.661,3.122,-3.470,0.224,-0.115,0.045,-0.471,-0.218,-1.285,-0.279,0.016,-1.512
11.915,-1.217,-0.875,2.633,-4.891,-0.211,-0.383,-40.847,3.114,-3.485,0.121,-0.263,-0.017,-0.471,-0.217,-1.285,-0.276,0.001,-1.489
11.943,-1.980,-0.022,3.015,-4.887,-0.220,-0.367,-40.945,3.110,-3.492,-0.335,-0.491,-0.392,-0.470,-0.216,-1.285,-0.260,-0.005,-1.502
11.971,-1.758,1.026,1.798,-4.888,-0.227,-0.347,-41.043,3.105,-3.499,-0.164,-0.182,-0.286,-0.470,-0.215,-1.285,-0.254,-0.013,-1.513
12.000,-0.412,1.276,-1.017,-4.896,-0.232,-0.309,-41.238,3.096,-3.512,0.406,0.432,0.136,-0.470,-0.215,-1.285,-0.251,0.005,-1.511
12.030,-0.541,0.810,-0.669,-4.901,-0.231,-0.295,-41.341,3.091,-3.519,-0.199,-0.307,0.035,-0.469,-0.214,-1.286,-0.249,0.012,-1.506
12.059,-0.788,0.763,-0.551,-4.914,-0.225,-0.273,-41.533,3.083,-3.530,-0.210,-0.176,0.009,-0.469,-0.214,-1.286,-0.228,0.009,-1.524
12.087,-0.334,0.705,-1.617,-4.923,-0.219,-0.265,-41.646,3.077,-3.536,0.044,0.338,0.184,-0.469,-0.214,-1.286,-0.222,0.012,-1.533
12.118,0.104,0.183,-2.221,-4.936,-0.209,-0.263,-41.828,3.069,-3.546,0.042,0.312,0.252,-0.469,-0.213,-1.286,-0.219,0.029,-1.542
12.147,0.091,-0.076,-1.816,-4.942,-0.204,-0.269,-41.922,3.066,-3.551,0.035,-0.216,0.236,-0.468,-0.212,-1.286,-0.221,0.029,-1.531
12.175,0.642,-0.059,-1.733,-4.950,-0.195,-0.289,-42.125,3.057,-3.562,0.103,-0.400,0.202,-0.468,-0.212,-1.285,-0.227,0.015,-1.518
12.204,0.961,0.152,-2.155,-4.951,-0.192,-0.303,-42.229,3.053,-3.568,0.073,-0.077,0.211,-0.467,-0.212,-1.284,-0.227,0.008,-1.496
12.233,0.823,0.015,-0.745,-4.949,-0.185,-0.336,-42.422,3.046,-3.581,-0.156,0.071,0.210,-0.467,-0.212,-1.283,-0.231,0.007,-1.486
12.259,0.817,0.180,-0.236,-4.945,-0.182,-0.352,-42.521,3.042,-3.588,-0.246,0.027,0.182,-0.467,-0.212,-1.282,-0.234,0.008,-1.467
12.288,1.020,0.474,-0.279,-4.940,-0.179,-0.368,-42.620,3.039,-3.595,0.108,-0.115,0.139,-0.467,-0.212,-1.280,-0.228,0.006,-1.449
12.319,1.334,0.257,-0.264,-4.925,-0.171,-0.395,-42.812,3.032,-3.610,0.189,-0.095,0.172,-0.467,-0.212,-1.279,-0.241,0.003,-1.423
12.345,1.174,0.165,-0.052,-4.915,-0.167,-0.408,-42.910,3.029,-3.618,0.066,0.137,0.153,-0.466,-0.212,-1.277,-0.254,0.003,-1.392
12.370,0.807,-0.131,0.810,-4.904,-0.163,-0.419,-43.009,3.025,-3.626,0.001,0.149,0.115,-0.466,-0.212,-1.275,-0.251,0.006,-1.392
12.399,0.419,-0.919,1.951,-4.881,-0.159,-0.430,-43.204,3.019,-3.643,0.013,-0.044,0.064,-0.466,-0.212,-1.274,-0.250,0.003,-1.386
12.424,0.644,-0.706,1.446,-4.870,-0.160,-0.429,-43.307,3.015,-3.652,0.216,-0.346,-0.114,-0.465,-0.212,-1.272,-0.256,-0.007,-1.388
12.450,1.035,-0.482,0.679,-4.858,-0.162,-0.426,-43.399,3.012,-3.660,0.159,-0.117,-0.161,-0.464,-0.213,-1.271,-0.256,-0.013,-1.387
12.475,-1.113,-1.219,2.390,-4.835,-0.171,-0.415,-43.603,3.005,-3.678,-0.200,-0.077,-0.244,-0.463,-0.213,-1.269,-0.252,-0.021,-1.400
12.502,-2.060,-0.452,3.537,-4.830,-0.178,-0.401,-43.704,3.002,-3.687,-0.760,-0.275,-0.454,-0.463,-0.214,-1.269,-0.226,-0.024,-1.415
12.527,-1.960,0.473,2.587,-4.829,-0.184,-0.386,-43.791,2.998,-3.694,-0.892,-0.095,-0.535,-0.464,-0.215,-1.269,-0.201,-0.027,-1.435
12.558,-0.048,0.594,-0.240,-4.833,-0.190,-0.350,-43.980,2.991,-3.708,-0.337,0.326,-0.154,-0.466,-0.216,-1.269,-0.167,-0.013,-1.479
12.585,0.501,-0.460,-0.551,-4.835,-0.192,-0.334,-44.081,2.987,-3.715,0.397,0.225,0.357,-0.468,-0.216,-1.269,-0.175,-0.006,-1.474
12.610,0.227,-1.725,0.222,-4.837,-0.196,-0.319,-44.187,2.983,-3.722,0.260,-0.726,0.094,-0.469,-0.217,-1.269,-0.180,-0.003,-1.470
12.634,0.441,-1.758,0.310,-4.837,-0.212,-0.295,-44.366,2.975,-3.734,0.419,-0.656,-0.087,-0.470,-0.217,-1.269,-0.192,-0.041,-1.451
12.657,1.004,-0.322,-2.193,-4.835,-0.224,-0.284,-44.468,2.971,-3.740,0.608,-0.206,-0.213,-0.470,-0.219,-1.269,-0.215,-0.048,-1.430
12.687,1.145,0.267,-2.870,-4.831,-0.234,-0.280,-44.565,2.966,-3.745,0.239,0.670,-0.225,-0.470,-0.220,-1.269,-0.223,-0.040,-1.440
12.714,0.907,0.742,-1.950,-4.820,-0.248,-0.288,-44.753,2.957,-3.756,-0.032,0.695,-0.202,-0.469,-0.220,-1.270,-0.237,-0.005,-1.446
12.741,0.679,0.208,-1.395,-4.811,-0.253,-0.298,-44.854,2.952,-3.763,-0.114,0.392,-0.143,-0.469,-0.220,-1.270,-0.242,0.005,-1.461
12.770,0.719,-0.287,-1.385,-4.802,-0.257,-0.310,-44.960,2.946,-3.769,0.084,-0.133,-0.040,-0.468,-0.219,-1.271,-0.239,0.006,-1.469
12.798,0.104,0.169,-1.838,-4.786,-0.265,-0.337,-45.142,2.936,-3.782,-0.081,0.062,-0.033,-0.468,-0.219,-1.272,-0.242,0.002,-1.462
12.826,-0.178,0.578,-0.048,-4.778,-0.268,-0.354,-45.242,2.930,-3.789,-1.189,1.048,0.243,-0.469,-0.218,-1.273,-0.228,0.019,-1.473
12.852,0.041,0.154,1.419,-4.772,-0.270,-0.366,-45.328,2.926,-3.795,-1.133,0.622,0.628,-0.470,-0.216,-1.273,-0.203,0.039,-1.480
12.877,1.437,-2.068,2.774,-4.757,-0.278,-0.378,-45.524,2.914,-3.811,-0.589,-0.227,0.929,-0.472,-0.215,-1.273,-0.173,0.035,-1.478
12.904,2.036,-2.005,1.818,-4.746,-0.287,-0.375,-45.619,2.909,-3.818,0.896,-0.562,0.713,-0.475,-0.213,-1.271,-0.191,0.006,-1.388
12.929,2.804,-1.326,0.006,-4.730,-0.300,-0.370,-45.723,2.902,-3.826,0.964,-0.173,0.556,-0.475,-0.212,-1.269,-0.206,-0.008,-1.349
12.959,1.198,-0.293,1.461,-4.694,-0.324,-0.363,-45.902,2.890,-3.840,0.375,0.274,0.362,-0.476,-0.212,-1.267,-0.248,-0.019,-1.298
12.986,0.078,0.803,1.952,-4.674,-0.335,-0.356,-45.996,2.884,-3.847,0.012,0.478,-0.136,-0.476,-0.210,-1.264,-0.247,-0.004,-1.320
13.010,0.138,0.723,0.740,-4.657,-0.343,-0.347,-46.089,2.877,-3.854,0.423,0.401,-0.094,-0.476,-0.209,-1.262,-0.244,0.007,-1.338
13.039,-0.442,-0.461,-0.542,-4.626,-0.355,-0.332,-46.270,2.863,-3.868,0.626,0.246,-0.090,-0.476,-0.208,-1.260,-0.265,0.023,-1.328
13.063,-1.078,-0.301,0.598,-4.615,-0.361,-0.326,-46.362,2.856,-3.874,0.418,-0.034,-0.156,-0.476,-0.206,-1.259,-0.264,0.023,-1.344
13.088,-1.345,0.051,0.779,-4.607,-0.368,-0.319,-46.459,2.849,-3.881,0.043,-0.492,-0.418,-0.474,-0.204,-1.257,-0.263,0.019,-1.365
13.114,-0.923,-0.011,-0.168,-4.600,-0.377,-0.307,-46.639,2.834,-3.893,0.203,-0.612,-0.395,-0.474,-0.203,-1.256,-0.256,0.006,-1.388
13.143,-0.645,-0.003,-0.184,-4.600,-0.381,-0.301,-46.744,2.825,-3.900,0.203,-0.701,-0.318,-0.473,-0.203,-1.255,-0.255,-0.005,-1.426
13.172,-0.360,0.494,-0.411,-4.600,-0.384,-0.297,-46.827,2.818,-3.906,-0.122,-0.276,-0.228,-0.471,-0.204,-1.255,-0.254,-0.016,-1.428
13.198,-0.086,1.113,-1.273,-4.603,-0.385,-0.295,-47.007,2.803,-3.917,-0.182,0.155,-0.192,-0.471,-0.204,-1.255,-0.247,-0.007,-1.451
13.223,-0.112,0.928,-1.031,-4.604,-0.382,-0.298,-47.099,2.796,-3.923,-0.265,0.479,-0.110,-0.470,-0.204,-1.255,-0.241,0.010,-1.457
13.247,-0.273,0.451,-0.571,-4.605,-0.377,-0.302,-47.195,2.788,-3.929,-0.142,-0.122,0.090,-0.469,-0.204,-1.255,-0.234,0.015,-1.455
13.273,0.481,-0.314,-0.916,-4.609,-0.370,-0.312,-47.380,2.773,-3.942,0.098,-0.293,0.130,-0.469,-0.204,-1.255,-0.230,0.012,-1.447
13.298,0.727,-0.173,-1.408,-4.609,-0.368,-0.318,-47.467,2.766,-3.948,0.247,-0.222,0.125,-0.469,-0.205,-1.255,-0.242,-0.001,-1.422
13.325,0.848,0.158,-1.215,-4.607,-0.366,-0.327,-47.560,2.759,-3.954,0.049,0.002,-0.012,-0.468,-0.205,-1.255,-0.244,-0.002,-1.430
13.349,0.704,0.227,-0.814,-4.604,-0.363,-0.339,-47.665,2.750,-3.962,-0.002,0.034,-0.059,-0.468,-0.206,-1.254,-0.252,-0.001,-1.421
13.374,0.783,0.474,-0.762,-4.595,-0.357,-0.360,-47.845,2.736,-3.975,0.072,0.020,-0.078,-0.467,-0.206,-1.254,-0.260,0.004,-1.427
13.398,1.017,0.469,-0.840,-4.589,-0.353,-0.370,-47.927,2.730,-3.982,0.177,-0.017,-0.065,-0.467,-0.206,-1.254,-0.262,0.004,-1.439
13.426,1.078,0.062,-0.738,-4.581,-0.349,-0.382,-48.019,2.723,-3.989,0.164,-0.061,-0.051,-0.465,-0.207,-1.254,-0.276,0.003,-1.418
13.454,0.448,0.207,0.325,-4.562,-0.341,-0.404,-48.202,2.709,-4.005,0.040,-0.087,-0.159,-0.465,-0.208,-1.254,-0.283,0.003,-1.427
13.480,0.085,0.338,0.764,-4.552,-0.337,-0.413,-48.302,2.701,-4.014,-0.033,-0.123,-0.249,-0.464,-0.208,-1.255,-0.281,0.003,-1.442
13.512,0.002,0.065,0.995,-4.544,-0.333,-0.419,-48.389,2.695,-4.022,0.072,-0.314,-0.139,-0.462,-0.209,-1.255,-0.281,0.001,-1.449
13.543,0.343,-0.066,1.073,-4.530,-0.327,-0.423,-48.566,2.682,-4.039,0.127,-0.365,-0.077,-0.462,-0.210,-1.256,-0.286,-0.011,-1.465
13.569,0.762,0.295,0.919,-4.521,-0.324,-0.422,-48.665,2.675,-4.048,0.182,-0.293,-0.059,-0.460,-0.212,-1.257,-0.289,-0.017,-1.478
13.597,0.048,-1.546,0.905,-4.505,-0.322,-0.415,-48.841,2.662,-4.064,0.078,-0.325,-0.053,-0.459,-0.214,-1.257,-0.299,-0.031,-1.483
13.627,-0.769,-1.686,1.476,-4.498,-0.325,-0.408,-48.931,2.656,-4.072,-0.401,-0.458,-0.303,-0.457,-0.216,-1.258,-0.290,-0.047,-1.500
13.656,-1.183,0.410,0.788,-4.493,-0.334,-0.390,-49.107,2.643,-4.088,-0.566,-0.259,-0.539,-0.457,-0.218,-1.259,-0.263,-0.052,-1.540
13.682,-0.926,0.817,0.178,-4.494,-0.337,-0.379,-49.201,2.636,-4.096,-0.483,0.176,-0.550,-0.457,-0.220,-1.261,-0.254,-0.045,-1.564
13.709,-1.095,0.399,-0.104,-4.497,-0.339,-0.370,-49.291,2.629,-4.104,-0.290,0.144,-0.364,-0.457,-0.223,-1.264,-0.238,-0.032,-1.585
13.734,-1.154,-0.453,1.084,-4.509,-0.342,-0.352,-49.471,2.616,-4.118,-0.353,-0.281,-0.279,-0.458,-0.225,-1.266,-0.218,-0.034,-1.618
13.760,-0.725,-0.529,0.698,-4.518,-0.344,-0.340,-49.570,2.608,-4.126,-0.387,-0.409,-0.175,-0.459,-0.226,-1.267,-0.211,-0.041,-1.626
13.786,0.326,-0.190,-0.644,-4.525,-0.347,-0.332,-49.652,2.602,-4.132,0.150,0.238,0.133,-0.460,-0.230,-1.271,-0.210,-0.045,-1.629
13.812,1.118,-0.060,-2.014,-4.530,-0.350,-0.326,-49.738,2.595,-4.138,0.385,0.529,0.249,-0.461,-0.231,-1.273,-0.214,-0.041,-1.632
13.838,1.394,0.112,-2.905,-4.533,-0.355,-0.330,-49.919,2.581,-4.151,0.371,0.606,0.236,-0.461,-0.232,-1.274,-0.246,-0.019,-1.589
13.863,0.715,0.016,-2.233,-4.530,-0.358,-0.342,-50.023,2.573,-4.159,-0.112,0.231,-0.009,-0.462,-0.233,-1.276,-0.252,-0.014,-1.590
13.887,0.202,0.112,-1.060,-4.527,-0.359,-0.353,-50.105,2.567,-4.165,-0.191,-0.255,-0.189,-0.463,-0.234,-1.278,-0.247,-0.014,-1.581
13.911,-0.189,0.146,-1.040,-4.524,-0.360,-0.366,-50.195,2.559,-4.172,-0.083,-0.297,-0.215,-0.464,-0.235,-1.280,-0.242,-0.017,-1.574
13.937,-0.286,0.037,-0.986,-4.521,-0.362,-0.394,-50.372,2.545,-4.187,-0.160,-0.167,-0.181,-0.464,-0.236,-1.281,-0.234,-0.023,-1.589
13.965,-0.286,0.024,-0.465,-4.520,-0.363,-0.412,-50.476,2.537,-4.196,-0.354,0.083,-0.104,-0.465,-0.237,-1.283,-0.227,-0.021,-1.591
13.989,-0.032,0.013,-0.074,-4.519,-0.363,-0.424,-50.557,2.530,-4.204,-0.398,0.503,0.128,-0.467,-0.238,-1.286,-0.217,-0.013,-1.611
14.012,0.838,-0.372,-0.272,-4.517,-0.365,-0.448,-50.733,2.516,-4.221,-0.208,0.414,0.217,-0.469,-0.238,-1.288,-0.210,-0.003,-1.634
14.037,1.218,-0.538,-0.188,-4.513,-0.367,-0.459,-50.823,2.509,-4.230,-0.062,0.270,0.275,-0.470,-0.238,-1.289,-0.213,0.007,-1.629
14.063,1.335,-0.662,0.371,-4.507,-0.369,-0.469,-50.914,2.502,-4.239,-0.033,0.197,0.329,-0.472,-0.238,-1.289,-0.223,0.006,-1.626
14.087,1.285,-0.984,1.051,-4.499,-0.374,-0.477,-51.008,2.494,-4.249,-0.038,0.093,0.390,-0.474,-0.237,-1.291,-0.224,0.008,-1.615
14.111,1.028,-0.983,1.567,-4.490,-0.380,-0.481,-51.098,2.486,-4.259,0.029,-0.034,0.303,-0.476,-0.237,-1.291,-0.231,0.003,-1.587
14.136,-0.015,-0.938,2.253,-4.470,-0.395,-0.478,-51.273,2.471,-4.277,0.098,-0.194,0.183,-0.477,-0.237,-1.291,-0.234,-0.009,-1.561
14.159,0.021,-0.196,2.282,-4.462,-0.403,-0.470,-51.362,2.463,-4.287,0.120,-0.281,0.061,-0.478,-0.237,-1.291,-0.236,-0.014,-1.550
14.182,-0.506,-0.026,2.019,-4.454,-0.412,-0.457,-51.460,2.454,-4.297,0.055,-0.241,-0.026,-0.479,-0.237,-1.291,-0.234,-0.019,-1.567
14.206,-1.453,0.079,2.785,-4.450,-0.418,-0.444,-51.540,2.447,-4.305,-0.403,-0.022,-0.012,-0.482,-0.237,-1.291,-0.231,-0.020,-1.593
14.230,-1.433,0.682,2.959,-4.448,-0.424,-0.423,-51.634,2.438,-4.314,-0.446,0.026,-0.004,-0.483,-0.237,-1.291,-0.214,-0.017,-1.623
14.256,-0.190,0.537,0.169,-4.452,-0.430,-0.381,-51.807,2.421,-4.330,-0.125,0.227,0.164,-0.485,-0.237,-1.291,-0.202,-0.009,-1.629
14.282,0.115,-0.279,-1.073,-4.455,-0.431,-0.360,-51.910,2.411,-4.338,0.312,0.424,0.369,-0.486,-0.237,-1.291,-0.210,-0.001,-1.621
14.306,-0.375,-0.725,-0.911,-4.457,-0.433,-0.347,-51.985,2.404,-4.344,0.188,-0.134,0.237,-0.488,-0.237,-1.290,-0.216,-0.003,-1.602
14.331,-1.136,-0.064,0.195,-4.460,-0.436,-0.334,-52.079,2.395,-4.352,-0.257,-0.224,-0.064,-0.489,-0.236,-1.289,-0.221,-0.007,-1.607
14.357,-0.845,0.673,-0.291,-4.472,-0.439,-0.312,-52.253,2.378,-4.364,-0.396,0.032,-0.148,-0.490,-0.236,-1.288,-0.199,-0.007,-1.627
14.384,-0.515,0.126,-1.246,-4.481,-0.439,-0.302,-52.356,2.368,-4.371,0.117,0.447,0.154,-0.493,-0.236,-1.287,-0.191,0.001,-1.628
14.408,-0.104,-0.206,-1.778,-4.488,-0.439,-0.298,-52.432,2.360,-4.376,0.265,0.318,0.208,-0.494,-0.235,-1.287,-0.194,0.010,-1.630
14.432,0.034,-0.416,-1.952,-4.495,-0.439,-0.298,-52.527,2.351,-4.383,0.269,0.131,0.177,-0.495,-0.234,-1.286,-0.200,0.012,-1.619
14.456,0.490,-0.130,-2.208,-4.506,-0.442,-0.309,-52.707,2.333,-4.395,0.224,0.066,0.067,-0.496,-0.233,-1.285,-0.217,0.015,-1.600
14.482,0.738,-0.110,-2.374,-4.509,-0.444,-0.322,-52.815,2.323,-4.402,0.166,0.149,0.039,-0.497,-0.232,-1.284,-0.221,0.018,-1.607
14.506,0.842,-0.084,-2.433,-4.510,-0.445,-0.334,-52.887,2.316,-4.408,-0.023,0.054,-0.088,-0.497,-0.231,-1.283,-0.233,0.020,-1.597
14.530,0.927,0.370,-1.597,-4.509,-0.446,-0.352,-52.977,2.307,-4.414,-0.143,-0.043,-0.158,-0.498,-0.229,-1.282,-0.233,0.022,-1.604
14.553,0.977,0.405,-0.716,-4.503,-0.446,-0.388,-53.153,2.289,-4.429,-0.144,-0.125,-0.155,-0.498,-0.229,-1.282,-0.236,0.024,-1.619
14.576,0.842,0.381,-0.325,-4.497,-0.445,-0.406,-53.248,2.280,-4.437,-0.101,-0.162,-0.133,-0.499,-0.228,-1.281,-0.241,0.025,-1.615
14.600,0.648,0.507,0.082,-4.490,-0.443,-0.423,-53.342,2.271,-4.446,-0.116,-0.181,-0.136,-0.500,-0.227,-1.281,-0.240,0.022,-1.633
14.623,0.496,0.575,0.441,-4.484,-0.440,-0.435,-53.423,2.263,-4.454,-0.150,-0.225,-0.104,-0.501,-0.226,-1.281,-0.241,0.023,-1.609
14.650,0.169,0.409,0.848,-4.477,-0.436,-0.447,-53.517,2.254,-4.463,-0.159,-0.248,-0.038,-0.502,-0.226,-1.281,-0.238,0.019,-1.617
14.673,-0.171,-0.418,1.721,-4.465,-0.430,-0.459,-53.696,2.236,-4.481,-0.139,-0.260,0.023,-0.503,-0.226,-1.280,-0.234,0.014,-1.632
14.696,-0.116,-0.285,1.689,-4.460,-0.428,-0.460,-53.785,2.228,-4.490,-0.073,-0.293,0.012,-0.504,-0.226,-1.280,-0.230,0.002,-1.621
14.721,0.158,-0.054,1.502,-4.456,-0.427,-0.457,-53.870,2.220,-4.499,0.005,-0.319,-0.039,-0.505,-0.227,-1.280,-0.231,-0.004,-1.625
14.745,0.404,-0.086,1.268,-4.452,-0.426,-0.451,-53.963,2.211,-4.508,-0.001,-0.293,-0.053,-0.506,-0.228,-1.280,-0.234,-0.009,-1.612
14.770,0.251,-0.841,1.088,-4.447,-0.426,-0.444,-54.052,2.202,-4.517,-0.147,-0.400,-0.094,-0.507,-0.229,-1.280,-0.235,-0.015,-1.584
14.796,-1.413,-1.136,1.938,-4.442,-0.434,-0.425,-54.225,2.185,-4.534,-0.424,-0.588,-0.291,-0.508,-0.230,-1.280,-0.219,-0.043,-1.597
14.824,-1.778,0.705,2.192,-4.444,-0.439,-0.410,-54.319,2.176,-4.543,-0.848,-0.279,-0.651,-0.511,-0.233,-1.281,-0.193,-0.049,-1.632
14.850,-1.417,1.227,0.701,-4.448,-0.442,-0.395,-54.403,2.168,-4.551,-0.536,0.370,-0.376,-0.514,-0.235,-1.283,-0.177,-0.052,-1.647
14.874,-0.801,0.222,-0.272,-4.463,-0.441,-0.367,-54.586,2.150,-4.566,-0.156,0.662,-0.049,-0.516,-0.236,-1.284,-0.155,-0.024,-1.685
14.899,-1.160,-0.807,0.059,-4.472,-0.441,-0.356,-54.671,2.141,-4.573,0.065,0.297,0.076,-0.518,-0.237,-1.285,-0.147,-0.025,-1.710
14.923,-0.756,-0.895,-0.079,-4.482,-0.443,-0.346,-54.765,2.132,-4.581,0.176,-0.487,0.029,-0.522,-0.239,-1.287,-0.151,-0.031,-1.690
14.950,-0.101,-0.684,-0.935,-4.493,-0.446,-0.337,-54.859,2.123,-4.588,0.263,-0.101,0.021,-0.524,-0.240,-1.288,-0.154,-0.046,-1.703
14.975,0.578,0.107,-2.131,-4.508,-0.453,-0.333,-55.035,2.105,-4.601,0.301,0.390,0.031,-0.526,-0.241,-1.289,-0.172,-0.038,-1.677
15.003,0.777,0.553,-1.646,-4.513,-0.456,-0.337,-55.120,2.096,-4.607,0.202,0.566,-0.006,-0.527,-0.242,-1.289,-0.176,-0.027,-1.673
15.027,0.414,0.470,-1.547,-4.517,-0.457,-0.344,-55.224,2.086,-4.615,0.119,-0.119,-0.178,-0.529,-0.243,-1.291,-0.183,-0.016,-1.672
15.053,0.242,-0.126,-1.107,-4.520,-0.458,-0.364,-55.396,2.069,-4.628,0.130,-0.291,-0.165,-0.530,-0.243,-1.292,-0.185,-0.017,-1.665
15.078,0.097,-0.509,-0.337,-4.520,-0.458,-0.375,-55.486,2.059,-4.636,-0.205,0.119,0.024,-0.531,-0.244,-1.293,-0.185,-0.020,-1.670
15.104,0.143,-0.626,0.188,-4.521,-0.460,-0.385,-55.577,2.050,-4.643,-0.088,0.192,-0.004,-0.534,-0.245,-1.295,-0.182,-0.020,-1.670
15.129,0.385,-0.422,-0.200,-4.521,-0.463,-0.395,-55.671,2.041,-4.652,0.099,0.117,-0.007,-0.535,-0.245,-1.296,-0.180,-0.016,-1.674
15.156,0.969,-0.517,-0.585,-4.517,-0.469,-0.413,-55.843,2.023,-4.667,0.167,0.075,0.053,-0.536,-0.245,-1.297,-0.192,-0.014,-1.646
15.181,1.030,-0.719,-0.382,-4.512,-0.474,-0.422,-55.938,2.013,-4.676,0.130,0.098,0.103,-0.537,-0.245,-1.297,-0.204,-0.016,-1.632
15.205,1.103,-0.750,-0.006,-4.506,-0.479,-0.431,-56.024,2.004,-4.684,-0.010,0.214,0.061,-0.538,-0.245,-1.299,-0.204,-0.013,-1.619
15.230,0.968,-0.500,0.454,-4.497,-0.486,-0.439,-56.127,1.993,-4.694,-0.032,0.231,0.001,-0.539,-0.245,-1.299,-0.212,-0.012,-1.587
15.255,0.768,0.040,1.045,-4.480,-0.497,-0.448,-56.298,1.974,-4.711,0.021,0.230,-0.021,-0.540,-0.245,-1.300,-0.215,-0.002,-1.591
15.281,0.635,-0.036,1.125,-4.470,-0.503,-0.448,-56.387,1.964,-4.720,0.132,0.237,0.016,-0.541,-0.244,-1.300,-0.216,0.003,-1.582
15.307,0.332,-0.254,1.275,-4.460,-0.508,-0.446,-56.477,1.954,-4.729,0.233,0.180,0.122,-0.541,-0.243,-1.301,-0.223,0.006,-1.580
15.331,0.142,-0.285,1.341,-4.449,-0.513,-0.441,-56.575,1.943,-4.738,0.215,0.136,0.134,-0.542,-0.242,-1.302,-0.226,0.009,-1.590
15.356,-0.502,-0.019,1.096,-4.434,-0.522,-0.427,-56.743,1.923,-4.755,0.139,0.171,0.140,-0.542,-0.241,-1.302,-0.231,0.014,-1.581
15.381,-1.084,0.210,1.147,-4.429,-0.526,-0.417,-56.832,1.913,-4.763,0.015,0.184,0.115,-0.542,-0.240,-1.302,-0.223,0.018,-1.581
15.406,-1.323,0.704,1.224,-4.427,-0.529,-0.407,-56.916,1.903,-4.771,-0.046,0.006,0.078,-0.542,-0.238,-1.302,-0.219,0.020,-1.558
15.431,-1.314,0.967,0.552,-4.428,-0.530,-0.394,-57.014,1.891,-4.780,0.078,-0.049,0.156,-0.542,-0.238,-1.302,-0.208,0.026,-1.570
15.456,-1.666,-0.415,0.131,-4.437,-0.529,-0.375,-57.182,1.871,-4.795,0.082,-0.244,0.238,-0.542,-0.237,-1.302,-0.196,0.016,-1.592
15.480,-1.822,-0.084,0.798,-4.447,-0.530,-0.364,-57.280,1.859,-4.803,-0.170,-0.507,0.215,-0.543,-0.236,-1.302,-0.191,0.004,-1.591
15.506,-1.515,0.449,0.600,-4.458,-0.530,-0.355,-57.364,1.849,-4.809,-0.525,0.020,0.131,-0.543,-0.236,-1.301,-0.170,-0.002,-1.604
15.531,-0.792,0.582,-0.264,-4.471,-0.529,-0.346,-57.454,1.839,-4.816,-0.297,0.418,0.281,-0.544,-0.235,-1.300,-0.159,-0.002,-1.621
15.557,0.079,-0.297,-1.594,-4.494,-0.526,-0.335,-57.628,1.818,-4.830,-0.023,0.434,0.417,-0.545,-0.235,-1.300,-0.149,0.014,-1.617
15.580,0.195,-0.806,-1.657,-4.505,-0.526,-0.336,-57.723,1.807,-4.837,0.138,0.178,0.435,-0.546,-0.234,-1.299,-0.154,0.010,-1.595
15.605,0.374,-0.965,-1.375,-4.513,-0.527,-0.338,-57.809,1.797,-4.843,0.098,-0.165,0.315,-0.547,-0.233,-1.296,-0.157,0.007,-1.575
15.630,0.393,-0.769,-0.984,-4.521,-0.531,-0.344,-57.903,1.786,-4.850,0.033,-0.104,0.200,-0.548,-0.232,-1.295,-0.163,-0.003,-1.548
15.653,0.706,-0.343,-1.189,-4.530,-0.540,-0.358,-58.084,1.764,-4.864,0.053,-0.039,0.106,-0.548,-0.232,-1.293,-0.164,-0.006,-1.525
15.677,0.876,-0.181,-1.289,-4.531,-0.545,-0.368,-58.175,1.754,-4.872,0.144,-0.013,0.044,-0.549,-0.231,-1.292,-0.174,-0.010,-1.531
15.702,0.830,-0.020,-0.948,-4.531,-0.549,-0.379,-58.261,1.743,-4.879,0.117,-0.046,-0.081,-0.549,-0.231,-1.290,-0.185,-0.011,-1.510
15.728,0.823,0.101,-0.765,-4.529,-0.553,-0.390,-58.352,1.732,-4.886,0.055,0.015,-0.127,-0.550,-0.230,-1.288,-0.184,-0.010,-1.511
15.755,0.550,0.242,-0.202,-4.522,-0.559,-0.413,-58.533,1.710,-4.903,0.023,0.007,-0.145,-0.550,-0.230,-1.286,-0.190,-0.007,-1.522
15.783,0.193,0.306,0.558,-4.517,-0.561,-0.424,-58.632,1.698,-4.912,-0.054,0.018,-0.164,-0.550,-0.230,-1.285,-0.191,-0.004,-1.517
15.811,-0.040,0.325,1.126,-4.513,-0.562,-0.431,-58.713,1.687,-4.919,0.001,-0.101,-0.151,-0.551,-0.229,-1.284,-0.187,-0.003,-1.552
15.837,-0.206,-0.320,1.574,-4.506,-0.563,-0.436,-58.894,1.665,-4.937,0.148,-0.257,-0.099,-0.551,-0.229,-1.283,-0.188,-0.009,-1.567
15.863,0.192,-0.301,1.495,-4.504,-0.565,-0.433,-58.988,1.653,-4.946,0.248,-0.310,-0.056,-0.551,-0.229,-1.282,-0.194,-0.016,-1.565
15.888,0.917,0.049,0.777,-4.500,-0.566,-0.428,-59.078,1.642,-4.954,0.347,0.064,0.017,-0.551,-0.229,-1.281,-0.199,-0.019,-1.578
15.914,0.785,-0.957,0.427,-4.489,-0.570,-0.417,-59.254,1.620,-4.971,0.247,-0.048,-0.029,-0.550,-0.229,-1.281,-0.219,-0.019,-1.557
15.940,-0.442,-1.337,0.676,-4.483,-0.574,-0.411,-59.344,1.608,-4.979,0.028,-0.353,-0.195,-0.550,-0.230,-1.280,-0.216,-0.033,-1.568
15.967,-1.504,-0.203,1.882,-4.479,-0.580,-0.402,-59.442,1.595,-4.988,-0.325,-0.578,-0.506,-0.549,-0.230,-1.280,-0.209,-0.042,-1.581
15.997,-1.831,1.466,1.556,-4.482,-0.586,-0.378,-59.612,1.573,-5.003,-0.676,-0.103,-0.690,-0.549,-0.232,-1.281,-0.170,-0.043,-1.629
16.024,-1.416,0.934,0.845,-4.489,-0.585,-0.362,-59.707,1.561,-5.011,-0.026,0.165,-0.122,-0.550,-0.234,-1.283,-0.152,-0.032,-1.640
16.050,-1.184,-0.009,0.127,-4.497,-0.583,-0.347,-59.796,1.549,-5.018,0.149,-0.119,-0.013,-0.551,-0.234,-1.284,-0.151,-0.028,-1.645
16.077,-0.093,-0.449,-0.837,-4.516,-0.581,-0.323,-59.977,1.526,-5.031,0.162,-0.136,0.013,-0.552,-0.235,-1.285,-0.151,-0.037,-1.635
16.102,0.528,-0.274,-1.306,-4.524,-0.582,-0.316,-60.063,1.515,-5.037,0.121,0.090,0.035,-0.552,-0.236,-1.286,-0.159,-0.037,-1.637
16.127,1.048,-0.046,-2.087,-4.530,-0.582,-0.313,-60.158,1.503,-5.044,0.148,0.514,0.093,-0.553,-0.237,-1.287,-0.160,-0.030,-1.648
16.153,1.268,0.499,-2.561,-4.532,-0.582,-0.322,-60.334,1.480,-5.056,0.176,0.558,0.039,-0.553,-0.237,-1.288,-0.182,-0.004,-1.637
16.180,0.786,0.023,-1.498,-4.530,-0.581,-0.333,-60.429,1.468,-5.063,0.059,0.382,-0.022,-0.553,-0.237,-1.289,-0.192,0.005,-1.637
16.206,0.467,-0.227,-0.609,-4.527,-0.580,-0.344,-60.516,1.457,-5.070,-0.192,-0.130,-0.076,-0.553,-0.236,-1.290,-0.189,0.007,-1.643
16.232,0.317,-0.333,-0.410,-4.523,-0.580,-0.356,-60.606,1.445,-5.077,-0.134,-0.178,-0.090,-0.553,-0.236,-1.291,-0.188,0.003,-1.640
16.257,0.296,-0.388,-0.236,-4.515,-0.582,-0.378,-60.791,1.421,-5.092,-0.079,-0.082,-0.061,-0.554,-0.236,-1.292,-0.186,-0.004,-1.643
16.283,0.422,-0.366,-0.264,-4.510,-0.584,-0.388,-60.882,1.410,-5.099,-0.059,0.087,-0.021,-0.554,-0.235,-1.293,-0.185,-0.002,-1.641
16.308,0.606,-0.457,-0.111,-4.505,-0.587,-0.397,-60.972,1.398,-5.107,0.087,0.079,0.055,-0.555,-0.235,-1.294,-0.190,-0.001,-1.652
16.335,0.986,-0.781,0.047,-4.492,-0.595,-0.413,-61.147,1.375,-5.123,0.139,0.090,0.066,-0.555,-0.235,-1.295,-0.203,-0.002,-1.642
16.363,1.159,-0.637,0.270,-4.484,-0.601,-0.419,-61.237,1.363,-5.131,0.162,0.138,0.057,-0.555,-0.234,-1.296,-0.206,0.001,-1.649
16.388,1.196,-0.561,0.359,-4.472,-0.608,-0.425,-61.340,1.349,-5.141,0.248,0.209,0.092,-0.555,-0.233,-1.297,-0.220,0.001,-1.637
16.413,0.833,-0.287,0.986,-4.450,-0.620,-0.430,-61.505,1.326,-5.157,0.277,0.167,0.077,-0.555,-0.232,-1.297,-0.237,0.007,-1.614
16.439,0.626,-0.234,1.143,-4.437,-0.627,-0.430,-61.594,1.314,-5.165,0.309,0.070,0.075,-0.555,-0.232,-1.298,-0.242,0.009,-1.609
16.464,0.389,-0.281,1.041,-4.425,-0.633,-0.427,-61.682,1.301,-5.174,0.316,0.013,0.059,-0.554,-0.231,-1.298,-0.252,0.007,-1.605
16.489,0.362,-0.383,1.155,-4.411,-0.641,-0.422,-61.784,1.287,-5.184,0.071,0.060,0.038,-0.553,-0.229,-1.298,-0.257,0.008,-1.608
16.518,-1.351,-0.673,1.955,-4.393,-0.655,-0.407,-61.951,1.262,-5.200,-0.151,-0.012,-0.057,-0.552,-0.229,-1.299,-0.252,0.004,-1.608
16.543,-1.963,0.138,2.668,-4.389,-0.662,-0.395,-62.035,1.250,-5.207,-0.385,-0.205,-0.230,-0.551,-0.228,-1.299,-0.231,0.002,-1.639
16.570,-1.868,0.957,2.022,-4.389,-0.668,-0.378,-62.127,1.236,-5.215,-0.086,-0.015,-0.126,-0.551,-0.227,-1.300,-0.223,-0.002,-1.654
16.595,-0.838,0.774,-0.681,-4.398,-0.672,-0.346,-62.298,1.209,-5.229,0.296,0.143,0.094,-0.551,-0.227,-1.301,-0.215,0.007,-1.658
16.620,-1.028,0.291,-0.687,-4.405,-0.672,-0.332,-62.391,1.195,-5.236,0.338,-0.143,0.131,-0.550,-0.226,-1.301,-0.212,0.005,-1.666
16.643,-1.317,0.674,0.032,-4.413,-0.671,-0.322,-62.474,1.183,-5.243,0.035,-0.475,0.048,-0.550,-0.226,-1.302,-0.212,-0.005,-1.651
16.669,-1.115,0.996,-0.308,-4.423,-0.669,-0.313,-62.567,1.168,-5.249,-0.203,0.038,0.049,-0.549,-0.226,-1.302,-0.197,-0.005,-1.660
16.692,-0.653,0.845,-0.984,-4.436,-0.664,-0.305,-62.669,1.153,-5.256,-0.055,0.211,0.170,-0.549,-0.226,-1.303,-0.193,-0.004,-1.679
16.715,-0.011,0.242,-1.714,-4.454,-0.654,-0.301,-62.829,1.129,-5.267,0.073,0.137,0.237,-0.549,-0.226,-1.303,-0.190,0.005,-1.680
16.740,0.180,-0.074,-1.804,-4.463,-0.649,-0.304,-62.923,1.116,-5.274,0.127,-0.022,0.257,-0.548,-0.226,-1.303,-0.195,0.004,-1.670
16.765,0.431,-0.246,-1.808,-4.470,-0.645,-0.311,-63.008,1.103,-5.280,0.094,-0.076,0.237,-0.548,-0.226,-1.302,-0.197,0.001,-1.655
16.790,0.562,-0.307,-1.713,-4.476,-0.642,-0.320,-63.102,1.090,-5.286,0.050,-0.029,0.188,-0.547,-0.226,-1.302,-0.205,-0.004,-1.630
16.815,0.465,-0.097,-1.143,-4.482,-0.638,-0.344,-63.276,1.065,-5.299,0.011,-0.050,0.099,-0.547,-0.226,-1.302,-0.211,-0.006,-1.619
16.841,0.488,0.052,-0.951,-4.483,-0.636,-0.358,-63.366,1.052,-5.306,-0.013,-0.111,-0.007,-0.547,-0.226,-1.301,-0.210,-0.008,-1.616
16.865,0.595,0.103,-0.857,-4.483,-0.635,-0.373,-63.460,1.039,-5.314,0.002,-0.081,-0.075,-0.546,-0.227,-1.300,-0.216,-0.009,-1.612
16.890,0.723,0.210,-0.770,-4.482,-0.633,-0.388,-63.550,1.026,-5.321,-0.018,-0.007,-0.076,-0.545,-0.227,-1.300,-0.215,-0.011,-1.613
16.917,0.779,0.402,-0.415,-4.476,-0.629,-0.416,-63.724,1.002,-5.337,-0.037,0.037,-0.079,-0.545,-0.227,-1.300,-0.220,-0.006,-1.613
16.940,0.567,0.132,-0.027,-4.471,-0.626,-0.429,-63.814,0.989,-5.346,-0.037,-0.024,-0.034,-0.545,-0.228,-1.299,-0.224,-0.005,-1.603
16.965,0.290,-0.026,0.434,-4.466,-0.623,-0.441,-63.903,0.977,-5.354,-0.005,-0.130,-0.043,-0.545,-0.228,-1.299,-0.223,-0.007,-1.589
16.990,-0.192,-0.340,1.442,-4.460,-0.621,-0.451,-64.015,0.961,-5.365,0.018,-0.323,-0.078,-0.544,-0.229,-1.299,-0.221,-0.013,-1.595
17.016,0.037,-0.258,1.730,-4.454,-0.620,-0.455,-64.171,0.939,-5.381,0.046,-0.253,-0.088,-0.544,-0.229,-1.299,-0.222,-0.025,-1.582
17.040,0.772,0.063,1.107,-4.451,-0.620,-0.453,-64.260,0.927,-5.390,0.132,-0.061,-0.057,-0.543,-0.230,-1.299,-0.223,-0.026,-1.584
17.067,1.149,-0.051,0.451,-4.446,-0.620,-0.449,-64.349,0.915,-5.399,0.128,-0.001,-0.018,-0.543,-0.232,-1.299,-0.236,-0.024,-1.602
17.091,0.413,-1.407,0.238,-4.439,-0.621,-0.444,-64.442,0.901,-5.409,-0.199,-0.412,-0.221,-0.542,-0.232,-1.299,-0.238,-0.023,-1.602
17.117,-2.193,0.463,3.454,-4.433,-0.630,-0.430,-64.615,0.877,-5.426,-0.820,-0.787,-0.660,-0.542,-0.233,-1.299,-0.208,-0.051,-1.627
17.141,-2.220,1.251,2.741,-4.437,-0.632,-0.414,-64.704,0.864,-5.434,-1.147,-0.605,-0.867,-0.542,-0.235,-1.300,-0.172,-0.054,-1.662
17.167,-1.058,1.496,1.293,-4.444,-0.632,-0.396,-64.793,0.852,-5.442,-0.325,0.866,0.026,-0.545,-0.238,-1.303,-0.154,-0.048,-1.672
17.193,-0.334,-0.630,0.105,-4.459,-0.627,-0.361,-64.971,0.827,-5.458,0.171,0.772,0.334,-0.546,-0.239,-1.304,-0.145,-0.013,-1.671
17.220,-0.620,-1.218,0.306,-4.468,-0.627,-0.345,-65.064,0.813,-5.465,0.437,-0.017,0.169,-0.547,-0.239,-1.305,-0.150,-0.023,-1.673
17.248,-0.325,-1.176,0.205,-4.476,-0.629,-0.330,-65.154,0.801,-5.472,0.479,-0.345,-0.194,-0.549,-0.241,-1.307,-0.158,-0.033,-1.681
17.275,1.054,0.885,-1.516,-4.489,-0.637,-0.308,-65.333,0.776,-5.484,0.437,0.346,-0.132,-0.549,-0.241,-1.308,-0.179,-0.036,-1.663
17.303,0.600,1.371,-1.007,-4.492,-0.637,-0.303,-65.418,0.763,-5.490,0.159,0.916,-0.164,-0.549,-0.242,-1.309,-0.187,-0.006,-1.692
17.330,0.344,1.518,-0.283,-4.494,-0.635,-0.299,-65.517,0.750,-5.497,-0.429,0.962,-0.204,-0.549,-0.241,-1.311,-0.182,0.017,-1.707
17.358,0.231,-0.147,-0.427,-4.496,-0.627,-0.293,-65.693,0.725,-5.508,-0.272,0.535,-0.006,-0.550,-0.240,-1.312,-0.168,0.052,-1.716
17.386,0.419,-0.600,-1.490,-4.496,-0.624,-0.293,-65.782,0.712,-5.514,0.553,-0.021,0.095,-0.551,-0.237,-1.315,-0.176,0.051,-1.705
17.412,0.787,-0.708,-2.344,-4.495,-0.622,-0.297,-65.872,0.700,-5.520,0.648,0.039,0.128,-0.551,-0.236,-1.316,-0.186,0.051,-1.700
17.438,0.784,-0.815,-1.981,-4.489,-0.624,-0.316,-66.048,0.676,-5.532,0.429,0.140,0.166,-0.550,-0.234,-1.317,-0.218,0.048,-1.674
17.463,0.742,-0.756,-1.391,-4.484,-0.627,-0.331,-66.142,0.663,-5.539,0.130,0.200,0.175,-0.550,-0.233,-1.318,-0.229,0.046,-1.667
17.486,0.705,-0.883,-0.866,-4.478,-0.632,-0.346,-66.236,0.649,-5.546,-0.016,0.155,0.148,-0.549,-0.231,-1.319,-0.228,0.049,-1.664
17.510,0.681,-0.692,-0.443,-4.471,-0.637,-0.360,-66.321,0.637,-5.553,0.015,-0.132,0.068,-0.548,-0.229,-1.320,-0.234,0.045,-1.656
17.536,0.826,-0.328,0.248,-4.456,-0.649,-0.386,-66.495,0.612,-5.567,0.049,-0.162,0.054,-0.547,-0.227,-1.320,-0.242,0.037,-1.643
17.560,1.030,-0.235,0.345,-4.447,-0.655,-0.397,-66.584,0.599,-5.575,0.160,0.060,0.182,-0.547,-0.226,-1.320,-0.244,0.038,-1.643
17.586,1.018,-0.403,0.484,-4.436,-0.662,-0.406,-66.677,0.585,-5.584,0.227,0.087,0.187,-0.545,-0.224,-1.321,-0.257,0.037,-1.622
17.611,0.593,-0.390,0.862,-4.425,-0.668,-0.412,-66.766,0.572,-5.592,0.206,0.024,0.098,-0.545,-0.222,-1.321,-0.261,0.038,-1.634
17.640,0.259,-0.218,1.162,-4.404,-0.681,-0.418,-66.942,0.545,-5.608,0.170,-0.021,0.045,-0.544,-0.221,-1.321,-0.270,0.037,-1.633
17.668,-0.232,-0.440,0.709,-4.394,-0.688,-0.417,-67.030,0.531,-5.617,0.004,-0.027,-0.070,-0.541,-0.219,-1.321,-0.271,0.034,-1.647
17.695,-1.713,0.908,2.148,-4.384,-0.699,-0.410,-67.206,0.504,-5.633,-0.345,-0.131,-0.209,-0.541,-0.218,-1.321,-0.251,0.037,-1.671
17.723,-1.767,1.667,1.991,-4.384,-0.701,-0.401,-67.289,0.490,-5.641,-0.541,-0.140,-0.280,-0.540,-0.217,-1.321,-0.239,0.035,-1.663
17.750,-1.484,1.269,0.844,-4.388,-0.700,-0.389,-67.390,0.474,-5.650,0.065,0.006,0.170,-0.539,-0.215,-1.322,-0.221,0.042,-1.670
17.778,-1.006,0.204,-0.510,-4.400,-0.693,-0.370,-67.557,0.448,-5.664,0.133,-0.170,0.252,-0.539,-0.214,-1.322,-0.215,0.038,-1.659
17.807,-0.745,0.649,-0.273,-4.408,-0.689,-0.363,-67.645,0.434,-5.672,-0.204,-0.039,0.238,-0.538,-0.213,-1.322,-0.213,0.032,-1.666
17.832,-0.033,0.638,-1.658,-4.423,-0.678,-0.357,-67.817,0.407,-5.686,-0.131,0.181,0.319,-0.538,-0.213,-1.321,-0.205,0.037,-1.668
17.858,0.007,0.205,-1.500,-4.430,-0.672,-0.358,-67.906,0.394,-5.693,-0.139,0.209,0.393,-0.538,-0.212,-1.321,-0.200,0.044,-1.683
17.883,-0.267,-0.309,-0.844,-4.437,-0.666,-0.362,-67.999,0.380,-5.701,-0.270,-0.226,0.316,-0.538,-0.211,-1.319,-0.196,0.043,-1.671
17.907,-0.176,-0.552,-0.605,-4.443,-0.662,-0.367,-68.083,0.367,-5.707,-0.177,-0.247,0.260,-0.539,-0.210,-1.318,-0.189,0.033,-1.669
17.932,0.123,-0.500,-0.946,-4.449,-0.659,-0.373,-68.172,0.354,-5.715,-0.082,-0.106,0.213,-0.539,-0.210,-1.317,-0.186,0.027,-1.662
17.958,0.538,-0.148,-1.366,-4.457,-0.656,-0.390,-68.355,0.327,-5.731,-0.053,0.067,0.162,-0.540,-0.210,-1.316,-0.189,0.024,-1.660
17.983,0.570,-0.228,-1.113,-4.459,-0.655,-0.401,-68.444,0.314,-5.738,-0.075,0.115,0.108,-0.540,-0.209,-1.314,-0.193,0.025,-1.648
18.009,0.541,-0.272,-0.771,-4.460,-0.655,-0.413,-68.529,0.301,-5.746,-0.064,-0.126,-0.007,-0.541,-0.209,-1.312,-0.191,0.025,-1.649
18.035,0.587,-0.173,-0.295,-4.458,-0.656,-0.436,-68.707,0.275,-5.763,-0.033,-0.191,-0.056,-0.542,-0.209,-1.310,-0.194,0.018,-1.654
18.060,0.511,-0.035,-0.172,-4.455,-0.657,-0.447,-68.801,0.261,-5.772,-0.011,-0.153,-0.076,-0.542,-0.209,-1.309,-0.199,0.015,-1.641
18.085,0.479,0.038,0.074,-4.452,-0.658,-0.457,-68.890,0.248,-5.781,-0.027,-0.015,-0.077,-0.543,-0.209,-1.307,-0.199,0.015,-1.671
18.110,0.418,-0.107,0.308,-4.448,-0.659,-0.466,-68.979,0.235,-5.791,0.006,-0.023,-0.053,-0.544,-0.209,-1.306,-0.202,0.015,-1.686
18.135,0.418,-0.173,0.404,-4.439,-0.661,-0.478,-69.157,0.209,-5.810,0.088,-0.060,-0.045,-0.544,-0.209,-1.305,-0.208,0.013,-1.686
18.160,0.218,-0.437,0.707,-4.434,-0.663,-0.482,-69.241,0.196,-5.819,0.169,-0.108,-0.101,-0.545,-0.209,-1.305,-0.212,0.012,-1.691
18.184,0.035,-0.625,1.267,-4.429,-0.666,-0.483,-69.334,0.182,-5.829,0.027,-0.216,-0.213,-0.545,-0.209,-1.303,-0.215,0.004,-1.685
18.209,0.246,-0.384,1.638,-4.425,-0.669,-0.482,-69.418,0.169,-5.838,-0.007,-0.121,-0.279,-0.546,-0.210,-1.303,-0.216,0.001,-1.681
18.236,-0.536,-1.116,0.793,-4.417,-0.678,-0.472,-69.595,0.143,-5.857,-0.101,-0.162,-0.385,-0.546,-0.210,-1.303,-0.216,-0.005,-1.696
18.261,-1.448,-0.528,2.190,-4.416,-0.685,-0.464,-69.688,0.128,-5.867,-0.487,-0.392,-0.589,-0.546,-0.211,-1.303,-0.197,-0.014,-1.735
18.287,-1.900,0.418,3.039,-4.418,-0.691,-0.452,-69.776,0.114,-5.876,-1.115,-0.244,-0.793,-0.548,-0.213,-1.304,-0.177,-0.021,-1.755
18.312,-0.340,0.752,0.199,-4.428,-0.697,-0.420,-69.948,0.087,-5.893,-0.729,0.352,-0.476,-0.550,-0.214,-1.306,-0.147,-0.020,-1.785
18.337,0.120,0.165,-0.682,-4.434,-0.697,-0.406,-70.037,0.073,-5.901,-0.210,0.756,-0.089,-0.553,-0.215,-1.307,-0.129,0.006,-1.805
18.360,0.018,-0.600,-1.340,-4.439,-0.699,-0.394,-70.135,0.058,-5.910,0.175,0.553,0.045,-0.555,-0.215,-1.309,-0.132,0.017,-1.800
18.384,-0.264,-1.086,-0.520,-4.444,-0.701,-0.386,-70.219,0.045,-5.918,0.189,-0.480,-0.214,-0.558,-0.215,-1.311,-0.138,0.007,-1.825
18.410,-0.492,-1.051,-0.144,-4.449,-0.706,-0.380,-70.308,0.031,-5.925,0.162,-0.443,-0.356,-0.560,-0.216,-1.313,-0.143,-0.002,-1.843
18.438,-0.019,0.370,-1.835,-4.459,-0.717,-0.372,-70.482,0.003,-5.940,0.176,-0.013,-0.440,-0.562,-0.216,-1.315,-0.149,-0.013,-1.841
18.466,0.104,0.710,-1.936,-4.465,-0.721,-0.375,-70.589,-0.014,-5.949,0.048,0.364,-0.428,-0.563,-0.217,-1.317,-0.149,0.003,-1.838
18.494,0.089,0.663,-1.045,-4.471,-0.723,-0.386,-70.750,-0.040,-5.962,-0.225,0.261,-0.329,-0.565,-0.217,-1.321,-0.142,0.026,-1.877
18.520,0.374,-0.026,-0.669,-4.474,-0.722,-0.395,-70.839,-0.055,-5.970,-0.172,0.004,-0.233,-0.567,-0.217,-1.324,-0.140,0.027,-1.887
18.548,0.461,-0.563,-0.779,-4.475,-0.722,-0.404,-70.933,-0.070,-5.979,0.022,-0.079,-0.006,-0.570,-0.217,-1.328,-0.144,0.022,-1.926
18.576,0.468,-0.852,-0.066,-4.475,-0.726,-0.423,-71.112,-0.099,-5.995,0.004,0.011,0.021,-0.571,-0.218,-1.331,-0.153,0.018,-1.919
18.603,0.493,-0.824,0.154,-4.473,-0.730,-0.431,-71.197,-0.113,-6.003,-0.043,0.004,-0.073,-0.574,-0.218,-1.335,-0.154,0.019,-1.932
18.631,0.572,-0.902,0.138,-4.471,-0.736,-0.438,-71.286,-0.127,-6.012,0.055,0.009,-0.071,-0.575,-0.218,-1.337,-0.160,0.016,-1.925
18.658,0.856,-0.819,0.052,-4.463,-0.751,-0.450,-71.470,-0.158,-6.030,0.131,0.037,-0.070,-0.577,-0.218,-1.339,-0.174,0.015,-1.908
18.686,0.914,-0.815,0.022,-4.456,-0.761,-0.455,-71.568,-0.174,-6.040,0.151,0.103,-0.081,-0.579,-0.218,-1.344,-0.178,0.018,-1.906
18.713,1.395,-0.476,-0.532,-4.440,-0.779,-0.464,-71.737,-0.204,-6.058,0.151,0.136,-0.064,-0.580,-0.218,-1.346,-0.195,0.022,-1.888
18.739,1.396,-0.411,-0.543,-4.429,-0.789,-0.469,-71.825,-0.219,-6.067,0.198,0.167,-0.055,-0.580,-0.217,-1.348,-0.212,0.027,-1.883
18.767,0.902,-0.561,0.215,-4.417,-0.798,-0.474,-71.914,-0.235,-6.076,0.026,-0.412,-0.130,-0.581,-0.217,-1.352,-0.217,0.030,-1.910
18.794,-0.417,-0.477,2.057,-4.395,-0.818,-0.476,-72.090,-0.268,-6.095,0.043,-0.496,-0.172,-0.582,-0.217,-1.354,-0.220,0.010,-1.902
18.820,-0.792,-0.506,1.178,-4.387,-0.828,-0.472,-72.178,-0.284,-6.105,0.165,-0.345,-0.182,-0.582,-0.217,-1.356,-0.219,-0.000,-1.919
18.848,-1.612,-0.070,1.521,-4.382,-0.837,-0.466,-72.261,-0.300,-6.114,-0.363,-0.023,-0.343,-0.583,-0.218,-1.360,-0.221,-0.000,-1.938
18.876,-1.995,1.030,2.008,-4.384,-0.851,-0.442,-72.441,-0.334,-6.133,-0.557,-0.013,-0.408,-0.584,-0.219,-1.363,-0.191,0.002,-1.963
18.904,-1.366,0.495,0.641,-4.390,-0.855,-0.427,-72.529,-0.352,-6.141,0.206,0.325,-0.045,-0.585,-0.220,-1.368,-0.175,0.005,-2.007
18.933,-0.901,-0.217,-1.376,-4.408,-0.860,-0.404,-72.700,-0.385,-6.157,0.318,0.147,-0.106,-0.586,-0.220,-1.371,-0.180,0.011,-2.002
18.960,-1.071,0.243,-0.703,-4.419,-0.863,-0.397,-72.793,-0.403,-6.166,-0.016,-0.120,-0.285,-0.586,-0.220,-1.373,-0.181,0.011,-2.008
18.987,-0.704,0.667,-0.349,-4.430,-0.864,-0.392,-72.881,-0.420,-6.174,-0.451,0.054,-0.312,-0.588,-0.220,-1.379,-0.165,0.011,-2.048
19.016,-0.727,-0.185,-0.802,-4.453,-0.864,-0.386,-73.059,-0.455,-6.189,-0.293,0.066,-0.171,-0.589,-0.220,-1.381,-0.147,0.012,-2.085
19.043,-0.818,-0.393,-0.850,-4.464,-0.865,-0.385,-73.144,-0.471,-6.197,-0.040,-0.233,-0.149,-0.591,-0.221,-1.387,-0.147,0.012,-2.098
19.069,-0.675,-0.245,-0.591,-4.477,-0.866,-0.387,-73.233,-0.489,-6.204,-0.006,-0.260,-0.188,-0.593,-0.221,-1.390,-0.142,0.004,-2.120
19.097,0.021,-0.234,-1.082,-4.501,-0.869,-0.393,-73.417,-0.524,-6.220,0.098,-0.137,-0.156,-0.594,-0.222,-1.393,-0.148,-0.003,-2.110
19.123,0.278,-0.350,-1.407,-4.510,-0.871,-0.398,-73.503,-0.541,-6.228,0.209,-0.002,-0.110,-0.595,-0.222,-1.396,-0.154,-0.001,-2.113
19.150,0.355,-0.532,-1.167,-4.519,-0.873,-0.407,-73.598,-0.559,-6.236,0.226,-0.132,-0.130,-0.596,-0.223,-1.402,-0.164,-0.002,-2.109
19.177,0.636,-0.178,-0.765,-4.530,-0.880,-0.426,-73.779,-0.594,-6.253,0.202,-0.236,-0.193,-0.597,-0.224,-1.405,-0.180,-0.005,-2.089
19.204,0.951,0.217,-0.561,-4.533,-0.884,-0.436,-73.874,-0.613,-6.262,0.148,-0.097,-0.258,-0.597,-0.225,-1.410,-0.186,-0.008,-2.101
19.231,0.882,0.367,-0.430,-4.534,-0.886,-0.447,-73.973,-0.632,-6.272,0.083,-0.022,-0.233,-0.597,-0.226,-1.413,-0.194,-0.002,-2.098
19.259,0.291,0.492,0.894,-4.531,-0.888,-0.463,-74.141,-0.665,-6.288,0.004,0.016,-0.162,-0.598,-0.227,-1.417,-0.197,0.004,-2.093
19.286,0.145,0.323,1.100,-4.529,-0.887,-0.467,-74.232,-0.683,-6.298,0.156,-0.114,-0.068,-0.598,-0.228,-1.422,-0.198,0.005,-2.107
19.311,0.125,0.083,0.816,-4.526,-0.886,-0.470,-74.331,-0.702,-6.308,0.348,-0.186,-0.006,-0.598,-0.229,-1.425,-0.202,0.004,-2.103
19.336,-0.149,-0.482,0.944,-4.523,-0.886,-0.470,-74.499,-0.735,-6.325,0.423,-0.200,0.045,-0.597,-0.230,-1.428,-0.219,-0.006,-2.097
19.361,0.023,-0.105,1.357,-4.522,-0.887,-0.466,-74.589,-0.753,-6.335,0.334,-0.142,0.043,-0.597,-0.231,-1.431,-0.226,-0.008,-2.103
19.385,0.072,0.177,1.192,-4.520,-0.887,-0.461,-74.684,-0.771,-6.345,0.323,-0.126,-0.031,-0.596,-0.233,-1.436,-0.230,-0.008,-2.130
19.408,0.041,-0.188,0.487,-4.519,-0.888,-0.453,-74.784,-0.791,-6.355,0.227,-0.307,-0.033,-0.595,-0.234,-1.439,-0.238,-0.010,-2.144
19.434,-0.929,-0.318,0.489,-4.520,-0.892,-0.440,-74.951,-0.824,-6.371,-0.077,-0.336,-0.213,-0.594,-0.236,-1.441,-0.241,-0.028,-2.154
19.458,-0.470,0.679,0.238,-4.523,-0.894,-0.433,-75.041,-0.842,-6.380,-0.371,-0.054,-0.379,-0.593,-0.238,-1.444,-0.228,-0.026,-2.171
19.484,-0.259,0.889,-0.014,-4.526,-0.894,-0.426,-75.141,-0.861,-6.389,-0.506,0.297,-0.381,-0.592,-0.239,-1.448,-0.219,-0.016,-2.195
19.511,-0.846,0.707,0.068,-4.530,-0.893,-0.420,-75.227,-0.878,-6.397,-0.417,-0.103,-0.249,-0.592,-0.241,-1.452,-0.202,-0.010,-2.203
19.536,-1.305,0.450,0.491,-4.543,-0.888,-0.408,-75.408,-0.914,-6.414,-0.386,-0.397,-0.246,-0.592,-0.242,-1.455,-0.177,-0.020,-2.227
19.561,-1.164,0.100,0.317,-4.552,-0.884,-0.402,-75.495,-0.931,-6.422,-0.343,-0.335,-0.162,-0.593,-0.244,-1.459,-0.173,-0.024,-2.241
19.587,-0.696,-0.403,-0.512,-4.563,-0.881,-0.396,-75.590,-0.949,-6.430,-0.027,0.292,0.175,-0.594,-0.246,-1.464,-0.165,-0.030,-2.226
19.614,0.344,-1.073,-2.624,-4.582,-0.881,-0.394,-75.773,-0.984,-6.446,0.134,0.442,0.236,-0.595,-0.247,-1.467,-0.178,-0.021,-2.213
19.641,0.871,-0.907,-3.133,-4.588,-0.884,-0.401,-75.860,-1.001,-6.453,0.216,0.479,0.176,-0.595,-0.248,-1.469,-0.184,-0.011,-2.198
19.669,0.755,-0.661,-3.079,-4.593,-0.888,-0.415,-75.961,-1.021,-6.462,-0.006,-0.072,-0.053,-0.596,-0.248,-1.474,-0.199,-0.005,-2.190
19.697,-0.078,-0.307,-0.803,-4.598,-0.898,-0.448,-76.136,-1.055,-6.479,-0.227,-0.370,-0.131,-0.596,-0.249,-1.476,-0.196,-0.014,-2.216
19.725,-0.276,0.022,0.028,-4.601,-0.904,-0.467,-76.242,-1.075,-6.489,-0.375,-0.398,-0.192,-0.598,-0.251,-1.481,-0.190,-0.021,-2.247
19.751,-0.196,0.237,0.456,-4.604,-0.909,-0.483,-76.338,-1.094,-6.499,-0.282,-0.195,-0.110,-0.599,-0.252,-1.483,-0.181,-0.028,-2.257
19.778,0.055,-0.265,0.409,-4.609,-0.915,-0.504,-76.509,-1.128,-6.517,-0.142,0.017,0.010,-0.600,-0.253,-1.486,-0.176,-0.030,-2.262
19.806,-0.137,-0.377,0.832,-4.611,-0.919,-0.512,-76.596,-1.146,-6.527,-0.061,0.059,0.076,-0.602,-0.255,-1.490,-0.176,-0.027,-2.264
19.835,0.051,-0.197,1.107,-4.615,-0.927,-0.520,-76.781,-1.183,-6.548,-0.043,0.042,0.051,-0.603,-0.256,-1.492,-0.177,-0.024,-2.266
19.860,0.386,-0.195,0.735,-4.616,-0.931,-0.520,-76.878,-1.202,-6.559,0.045,0.153,0.082,-0.604,-0.257,-1.494,-0.181,-0.021,-2.255
19.887,0.571,-0.303,0.583,-4.616,-0.935,-0.519,-76.970,-1.221,-6.569,0.188,0.432,0.211,-0.606,-0.258,-1.497,-0.185,-0.013,-2.244
19.911,0.334,-0.422,0.892,-4.615,-0.940,-0.517,-77.058,-1.239,-6.579,0.147,0.371,0.248,-0.607,-0.258,-1.499,-0.192,-0.006,-2.234
19.938,-0.207,-0.399,1.499,-4.613,-0.950,-0.507,-77.242,-1.276,-6.599,0.109,0.236,0.236,-0.607,-0.258,-1.500,-0.199,0.003,-2.207
19.963,-0.598,-0.545,1.230,-4.614,-0.955,-0.498,-77.335,-1.295,-6.609,0.123,0.138,0.217,-0.608,-0.258,-1.501,-0.202,0.006,-2.210
19.988,-1.283,-0.434,1.558,-4.616,-0.962,-0.487,-77.432,-1.315,-6.620,0.139,-0.101,0.150,-0.609,-0.257,-1.502,-0.200,-0.002,-2.215
20.014,-1.336,1.277,2.660,-4.626,-0.970,-0.457,-77.612,-1.353,-6.638,-0.280,-0.290,-0.095,-0.609,-0.257,-1.503,-0.188,-0.008,-2.222
20.039,-0.935,1.489,1.153,-4.635,-0.970,-0.437,-77.709,-1.374,-6.648,-0.057,-0.007,0.038,-0.609,-0.257,-1.504,-0.188,-0.007,-2.242
20.065,-0.392,0.926,-1.269,-4.643,-0.967,-0.420,-77.797,-1.392,-6.656,0.182,0.199,0.215,-0.610,-0.257,-1.505,-0.185,0.001,-2.237
20.091,-0.296,0.956,-1.212,-4.652,-0.963,-0.407,-77.895,-1.412,-6.664,-0.180,-0.031,0.165,-0.610,-0.257,-1.505,-0.190,0.005,-2.220
20.118,-0.059,1.100,-0.714,-4.668,-0.951,-0.389,-78.077,-1.450,-6.680,-0.384,-0.038,0.154,-0.611,-0.257,-1.506,-0.173,0.008,-2.240
20.143,0.069,0.858,-1.277,-4.676,-0.941,-0.383,-78.179,-1.470,-6.688,-0.316,0.106,0.221,-0.611,-0.257,-1.506,-0.163,0.015,-2.210
20.168,-0.159,0.497,-1.419,-4.682,-0.933,-0.382,-78.268,-1.488,-6.696,-0.209,0.032,0.357,-0.613,-0.256,-1.506,-0.159,0.017,-2.187
20.193,-0.263,0.208,-1.073,-4.695,-0.915,-0.386,-78.456,-1.525,-6.711,-0.181,-0.062,0.351,-0.614,-0.256,-1.505,-0.148,0.015,-2.185
20.217,-0.026,-0.011,-1.354,-4.701,-0.908,-0.391,-78.550,-1.543,-6.719,-0.060,-0.105,0.362,-0.615,-0.256,-1.504,-0.147,0.012,-2.176
20.243,0.295,-0.414,-1.873,-4.707,-0.900,-0.400,-78.653,-1.563,-6.727,0.137,-0.108,0.409,-0.615,-0.255,-1.504,-0.150,0.009,-2.153
20.268,0.430,-0.779,-2.055,-4.710,-0.896,-0.410,-78.733,-1.578,-6.734,0.231,-0.116,0.358,-0.617,-0.255,-1.501,-0.163,0.002,-2.150
20.293,0.318,-0.612,-0.594,-4.715,-0.893,-0.438,-78.922,-1.614,-6.751,0.088,-0.112,0.214,-0.617,-0.255,-1.500,-0.168,-0.001,-2.139
20.318,0.424,-0.254,-0.210,-4.715,-0.893,-0.451,-79.016,-1.632,-6.760,0.015,-0.119,0.053,-0.618,-0.256,-1.498,-0.174,-0.009,-2.117
20.342,0.428,-0.166,-0.467,-4.715,-0.894,-0.467,-79.129,-1.654,-6.771,0.101,-0.106,-0.031,-0.618,-0.256,-1.497,-0.180,-0.009,-2.112
20.368,0.242,-0.130,-0.071,-4.714,-0.895,-0.477,-79.209,-1.669,-6.779,0.114,-0.050,-0.114,-0.619,-0.256,-1.494,-0.184,-0.011,-2.099
20.392,-0.132,0.384,0.797,-4.714,-0.895,-0.488,-79.304,-1.687,-6.789,-0.054,-0.012,-0.186,-0.619,-0.257,-1.493,-0.184,-0.009,-2.107
20.418,-0.448,0.547,1.437,-4.714,-0.893,-0.499,-79.488,-1.722,-6.808,-0.060,-0.005,-0.202,-0.619,-0.257,-1.492,-0.178,-0.007,-2.125
20.443,-0.454,0.238,1.284,-4.715,-0.891,-0.499,-79.582,-1.739,-6.818,0.233,-0.073,-0.048,-0.619,-0.257,-1.491,-0.179,-0.007,-2.134
20.468,-0.151,0.191,1.209,-4.717,-0.888,-0.497,-79.681,-1.758,-6.829,0.233,-0.073,-0.048,-0.619,-0.257,-1.491,-0.182,-0.008,-2.131
20.492,0.213,0.238,1.130,-4.719,-0.885,-0.493,-79.780,-1.777,-6.839,0.197,0.119,0.026,-0.619,-0.258,-1.489,-0.188,-0.007,-2.102
20.518,0.182,-0.639,0.211,-4.720,-0.880,-0.481,-79.959,-1.810,-6.858,0.209,0.169,0.065,-0.619,-0.258,-1.488,-0.199,0.002,-2.072
20.543,-1.089,-1.359,-0.076,-4.720,-0.881,-0.476,-80.054,-1.828,-6.867,0.067,-0.387,-0.033,-0.618,-0.259,-1.487,-0.201,-0.013,-2.042
20.568,-1.836,-0.151,1.810,-4.724,-0.882,-0.468,-80.158,-1.847,-6.877,-0.535,-0.743,-0.414,-0.617,-0.259,-1.486,-0.202,-0.020,-2.055
20.594,-1.294,2.104,2.071,-4.739,-0.880,-0.444,-80.337,-1.881,-6.895,-0.958,-0.670,-0.663,-0.617,-0.260,-1.486,-0.159,-0.042,-2.106
20.620,-0.720,1.478,0.902,-4.750,-0.873,-0.428,-80.432,-1.898,-6.904,-0.740,-0.299,-0.485,-0.618,-0.261,-1.486,-0.134,-0.039,-2.130
20.645,-0.543,0.598,-0.585,-4.760,-0.866,-0.413,-80.527,-1.916,-6.912,0.465,-0.035,0.324,-0.619,-0.264,-1.487,-0.139,-0.041,-2.123
20.670,-0.478,-0.223,-1.682,-4.773,-0.857,-0.400,-80.637,-1.935,-6.921,0.390,0.034,0.385,-0.619,-0.265,-1.486,-0.145,-0.047,-2.091
20.695,-0.120,-0.691,-1.447,-4.792,-0.849,-0.391,-80.819,-1.968,-6.936,0.197,0.072,0.325,-0.620,-0.266,-1.486,-0.155,-0.056,-2.064
20.721,0.466,0.000,-2.001,-4.801,-0.847,-0.391,-80.910,-1.984,-6.944,0.140,0.101,0.142,-0.619,-0.268,-1.485,-0.155,-0.055,-2.056
20.748,0.443,0.337,-2.624,-4.808,-0.845,-0.397,-81.006,-2.001,-6.952,0.147,0.243,-0.061,-0.619,-0.269,-1.484,-0.162,-0.046,-2.015
20.775,-0.309,0.743,-1.142,-4.819,-0.838,-0.420,-81.203,-2.035,-6.968,-0.110,0.204,-0.104,-0.619,-0.270,-1.484,-0.154,-0.033,-2.027
20.803,-0.516,1.028,-0.089,-4.824,-0.832,-0.432,-81.300,-2.052,-6.977,-0.379,0.042,-0.130,-0.619,-0.271,-1.484,-0.144,-0.033,-2.034
20.830,-0.412,1.098,0.352,-4.830,-0.826,-0.444,-81.396,-2.069,-6.986,-0.206,-0.054,0.071,-0.619,-0.272,-1.483,-0.130,-0.029,-2.047
20.855,0.008,-0.133,-0.026,-4.841,-0.810,-0.461,-81.585,-2.101,-7.003,0.016,0.112,0.298,-0.619,-0.272,-1.483,-0.124,-0.031,-2.029
20.880,0.207,-0.477,-0.297,-4.847,-0.803,-0.470,-81.691,-2.118,-7.013,0.112,0.211,0.421,-0.620,-0.273,-1.482,-0.123,-0.029,-2.020
20.906,0.419,-0.586,-0.457,-4.850,-0.799,-0.477,-81.779,-2.133,-7.022,0.089,0.270,0.413,-0.620,-0.273,-1.480,-0.130,-0.028,-2.003
20.931,0.630,-0.770,-0.775,-4.852,-0.797,-0.485,-81.876,-2.149,-7.032,0.095,0.336,0.421,-0.620,-0.273,-1.479,-0.129,-0.024,-1.991
20.958,1.031,-0.862,-0.409,-4.852,-0.797,-0.503,-82.070,-2.181,-7.051,0.059,0.336,0.393,-0.620,-0.273,-1.478,-0.138,-0.018,-1.990
20.983,1.379,-0.417,-0.395,-4.848,-0.799,-0.514,-82.186,-2.200,-7.064,0.044,0.330,0.324,-0.620,-0.273,-1.476,-0.151,-0.010,-1.926
21.007,1.517,-0.301,-0.178,-4.843,-0.802,-0.521,-82.269,-2.213,-7.072,0.075,0.430,0.336,-0.620,-0.271,-1.472,-0.149,-0.004,-1.925
21.032,1.074,-0.446,0.318,-4.836,-0.805,-0.528,-82.361,-2.229,-7.082,0.049,0.340,0.358,-0.620,-0.270,-1.470,-0.159,0.004,-1.892
21.057,-0.018,-0.275,1.698,-4.818,-0.813,-0.537,-82.559,-2.262,-7.104,-0.029,0.111,0.308,-0.620,-0.269,-1.468,-0.156,0.008,-1.878
21.083,-0.163,0.234,1.717,-4.810,-0.817,-0.535,-82.660,-2.279,-7.115,-0.078,-0.073,0.237,-0.620,-0.268,-1.466,-0.151,0.005,-1.870
21.107,0.073,0.755,0.994,-4.804,-0.820,-0.531,-82.751,-2.294,-7.126,0.040,0.090,0.243,-0.620,-0.266,-1.461,-0.150,0.007,-1.849
21.132,0.074,0.816,0.268,-4.798,-0.821,-0.526,-82.847,-2.311,-7.136,-0.051,0.368,0.378,-0.620,-0.265,-1.458,-0.147,0.007,-1.837
21.157,-0.518,0.449,1.273,-4.789,-0.819,-0.514,-83.034,-2.343,-7.156,-0.327,0.396,0.525,-0.620,-0.263,-1.456,-0.133,0.021,-1.847
21.182,-0.496,0.223,0.954,-4.787,-0.816,-0.504,-83.144,-2.362,-7.168,-0.400,0.117,0.562,-0.620,-0.262,-1.453,-0.121,0.022,-1.813
21.207,-0.525,-0.385,0.369,-4.786,-0.815,-0.497,-83.225,-2.375,-7.177,0.044,-0.569,0.578,-0.621,-0.260,-1.446,-0.114,0.015,-1.805
21.234,-0.810,-0.783,0.824,-4.788,-0.816,-0.478,-83.417,-2.408,-7.196,0.006,-0.815,0.529,-0.622,-0.259,-1.442,-0.107,-0.023,-1.810
21.262,-0.632,-0.260,0.564,-4.791,-0.818,-0.468,-83.513,-2.424,-7.206,-0.285,-0.507,0.255,-0.622,-0.259,-1.438,-0.097,-0.037,-1.814
21.288,-0.272,-0.067,0.155,-4.796,-0.821,-0.457,-83.628,-2.444,-7.217,-0.216,-0.010,0.225,-0.623,-0.259,-1.431,-0.088,-0.041,-1.796
21.317,-0.386,-0.807,1.080,-4.803,-0.828,-0.440,-83.800,-2.474,-7.233,-0.149,-0.108,0.188,-0.624,-0.259,-1.427,-0.076,-0.050,-1.809
21.342,-0.488,-0.635,1.078,-4.808,-0.833,-0.429,-83.897,-2.490,-7.242,-0.024,-0.259,0.035,-0.625,-0.259,-1.423,-0.073,-0.060,-1.793
21.366,-0.124,-0.249,0.226,-4.813,-0.839,-0.418,-83.993,-2.507,-7.250,0.589,-0.115,-0.145,-0.627,-0.260,-1.416,-0.074,-0.066,-1.773
21.391,0.345,-0.177,-1.086,-4.818,-0.845,-0.408,-84.094,-2.525,-7.259,0.809,0.055,-0.119,-0.627,-0.260,-1.413,-0.089,-0.068,-1.765
21.416,1.078,-0.219,-2.294,-4.821,-0.855,-0.402,-84.287,-2.559,-7.275,0.788,0.244,-0.103,-0.627,-0.260,-1.410,-0.130,-0.062,-1.707
21.442,1.083,-0.290,-1.899,-4.820,-0.861,-0.405,-84.378,-2.575,-7.283,0.585,0.329,-0.112,-0.626,-0.261,-1.407,-0.137,-0.056,-1.712
21.467,1.023,-0.065,-1.522,-4.816,-0.866,-0.412,-84.475,-2.592,-7.291,0.348,0.249,-0.175,-0.625,-0.261,-1.403,-0.154,-0.049,-1.719
21.493,0.940,0.699,-0.744,-4.804,-0.873,-0.431,-84.672,-2.628,-7.308,0.139,0.093,-0.219,-0.622,-0.260,-1.398,-0.165,-0.037,-1.709
21.520,0.976,0.724,-0.387,-4.796,-0.874,-0.441,-84.768,-2.645,-7.317,0.150,0.167,-0.101,-0.621,-0.260,-1.396,-0.164,-0.034,-1.717
21.549,0.861,0.559,-0.062,-4.788,-0.874,-0.451,-84.864,-2.663,-7.326,0.233,0.232,0.182,-0.618,-0.259,-1.392,-0.174,-0.024,-1.710
21.576,0.683,-0.626,0.648,-4.768,-0.873,-0.466,-85.055,-2.698,-7.344,0.260,0.110,0.309,-0.617,-0.258,-1.390,-0.185,-0.022,-1.710
21.603,0.327,-1.299,1.148,-4.757,-0.876,-0.471,-85.164,-2.718,-7.355,0.264,-0.038,0.381,-0.615,-0.258,-1.387,-0.187,-0.025,-1.725
21.629,0.581,-0.921,0.945,-4.748,-0.879,-0.473,-85.250,-2.734,-7.363,0.398,-0.253,0.237,-0.612,-0.257,-1.382,-0.198,-0.034,-1.717
21.658,0.336,-1.439,0.083,-4.727,-0.891,-0.473,-85.444,-2.770,-7.383,0.424,-0.279,0.134,-0.609,-0.257,-1.379,-0.215,-0.056,-1.701
21.687,-0.633,-2.183,0.593,-4.718,-0.900,-0.472,-85.529,-2.786,-7.391,-0.144,-0.589,-0.120,-0.605,-0.257,-1.375,-0.217,-0.064,-1.724
21.712,-1.739,-1.428,2.126,-4.712,-0.914,-0.468,-85.638,-2.807,-7.402,-0.734,-0.619,-0.463,-0.603,-0.258,-1.372,-0.204,-0.085,-1.746
21.737,-1.199,1.299,1.382,-4.711,-0.934,-0.451,-85.812,-2.841,-7.419,-1.048,-0.367,-0.746,-0.602,-0.258,-1.370,-0.161,-0.094,-1.812
21.763,-0.638,0.992,0.401,-4.713,-0.939,-0.439,-85.901,-2.859,-7.427,-0.952,0.164,-0.623,-0.601,-0.260,-1.369,-0.142,-0.088,-1.829
21.787,-0.258,0.180,-0.066,-4.717,-0.943,-0.428,-86.001,-2.879,-7.437,-0.352,0.830,-0.013,-0.601,-0.260,-1.367,-0.126,-0.073,-1.848
21.812,-0.422,-0.761,-0.156,-4.721,-0.947,-0.419,-86.095,-2.898,-7.445,-0.095,0.494,0.006,-0.601,-0.260,-1.366,-0.119,-0.056,-1.851
21.837,0.243,-0.198,-1.176,-4.728,-0.958,-0.406,-86.279,-2.935,-7.461,0.071,0.077,-0.148,-0.601,-0.260,-1.365,-0.117,-0.050,-1.874
21.863,0.589,0.251,-1.788,-4.731,-0.963,-0.405,-86.378,-2.955,-7.470,0.064,0.155,-0.263,-0.602,-0.259,-1.364,-0.124,-0.042,-1.864
21.887,0.796,0.442,-2.103,-4.732,-0.967,-0.407,-86.473,-2.974,-7.478,-0.101,0.452,-0.114,-0.602,-0.258,-1.363,-0.123,-0.034,-1.853
21.912,0.718,0.358,-1.437,-4.731,-0.969,-0.413,-86.568,-2.994,-7.486,-0.239,0.230,-0.083,-0.602,-0.257,-1.363,-0.127,-0.020,-1.857
21.937,0.531,-0.081,0.066,-4.726,-0.973,-0.427,-86.752,-3.032,-7.502,-0.281,-0.010,-0.064,-0.603,-0.256,-1.363,-0.120,-0.014,-1.856
21.963,0.605,-0.366,0.201,-4.722,-0.975,-0.434,-86.851,-3.052,-7.511,-0.164,-0.083,-0.045,-0.603,-0.255,-1.362,-0.116,-0.016,-1.870
21.987,0.478,-0.692,0.061,-4.717,-0.978,-0.440,-86.960,-3.075,-7.521,0.180,-0.007,0.038,-0.605,-0.253,-1.362,-0.121,-0.020,-1.855
22.013,1.003,-0.489,-0.338,-4.706,-0.986,-0.449,-87.134,-3.111,-7.538,0.242,0.065,0.020,-0.605,-0.252,-1.362,-0.138,-0.020,-1.832
22.040,1.272,-0.534,-0.065,-4.698,-0.992,-0.454,-87.228,-3.131,-7.547,0.227,0.125,0.050,-0.605,-0.251,-1.361,-0.141,-0.018,-1.828
22.069,1.100,-0.703,0.222,-4.688,-0.998,-0.458,-87.322,-3.151,-7.556,0.209,0.142,0.111,-0.605,-0.249,-1.361,-0.154,-0.017,-1.815
22.097,0.886,-1.039,0.461,-4.667,-1.012,-0.463,-87.505,-3.190,-7.574,0.249,0.095,0.116,-0.605,-0.248,-1.360,-0.170,-0.018,-1.811
22.123,1.155,-0.853,0.438,-4.651,-1.023,-0.464,-87.616,-3.214,-7.585,0.305,0.161,0.119,-0.605,-0.247,-1.360,-0.174,-0.015,-1.800
22.149,0.979,-0.606,0.604,-4.639,-1.032,-0.464,-87.700,-3.233,-7.593,0.380,0.402,0.027,-0.604,-0.245,-1.359,-0.189,-0.012,-1.770
22.176,0.408,0.032,1.064,-4.613,-1.050,-0.460,-87.880,-3.273,-7.612,0.369,0.406,-0.049,-0.602,-0.243,-1.358,-0.205,0.005,-1.762
22.204,0.444,0.119,1.286,-4.600,-1.058,-0.455,-87.973,-3.294,-7.621,0.367,0.139,0.020,-0.600,-0.240,-1.357,-0.209,0.010,-1.750
22.231,-0.202,-0.279,0.367,-4.588,-1.065,-0.449,-88.060,-3.315,-7.629,0.342,0.034,0.033,-0.599,-0.238,-1.357,-0.215,0.011,-1.768
22.256,-1.171,0.162,1.650,-4.572,-1.080,-0.433,-88.248,-3.359,-7.647,0.071,-0.165,0.006,-0.597,-0.236,-1.356,-0.213,0.007,-1.767
22.280,-1.127,0.752,1.070,-4.568,-1.086,-0.422,-88.339,-3.380,-7.656,-0.220,-0.302,-0.116,-0.595,-0.234,-1.356,-0.206,0.001,-1.768
22.306,-0.682,0.717,0.322,-4.567,-1.089,-0.411,-88.430,-3.402,-7.664,-0.083,-0.130,-0.017,-0.593,-0.232,-1.355,-0.195,0.001,-1.785
22.331,-0.799,0.115,-0.187,-4.567,-1.091,-0.401,-88.522,-3.424,-7.672,-0.056,-0.219,0.023,-0.592,-0.231,-1.355,-0.192,-0.002,-1.785
22.355,-0.573,0.272,-0.767,-4.572,-1.095,-0.385,-88.704,-3.467,-7.688,-0.222,-0.290,-0.009,-0.591,-0.230,-1.355,-0.178,-0.014,-1.813
22.381,-0.015,0.715,-1.514,-4.576,-1.095,-0.381,-88.796,-3.489,-7.696,-0.335,-0.130,-0.073,-0.590,-0.230,-1.354,-0.170,-0.011,-1.817
22.404,0.365,1.102,-1.985,-4.578,-1.094,-0.382,-88.883,-3.510,-7.703,-0.172,0.352,0.055,-0.589,-0.228,-1.354,-0.162,-0.007,-1.809
22.428,0.227,0.703,-2.026,-4.580,-1.091,-0.386,-88.979,-3.533,-7.711,-0.093,0.153,0.181,-0.589,-0.227,-1.354,-0.160,0.006,-1.802
22.452,0.006,-0.200,-1.282,-4.582,-1.087,-0.394,-89.080,-3.557,-7.720,-0.077,-0.264,0.297,-0.589,-0.226,-1.353,-0.157,0.009,-1.798
22.475,-0.074,-0.648,-0.385,-4.585,-1.085,-0.410,-89.259,-3.599,-7.735,-0.013,-0.506,0.205,-0.589,-0.225,-1.353,-0.153,-0.015,-1.805
22.502,0.168,-0.013,-0.647,-4.586,-1.085,-0.418,-89.346,-3.620,-7.743,0.077,-0.211,0.125,-0.588,-0.225,-1.352,-0.156,-0.019,-1.798
22.528,0.705,0.503,-1.159,-4.586,-1.085,-0.427,-89.433,-3.641,-7.751,0.093,0.319,0.205,-0.588,-0.224,-1.351,-0.157,-0.017,-1.788
22.555,0.922,0.104,-0.537,-4.582,-1.082,-0.449,-89.621,-3.685,-7.769,0.056,0.290,0.257,-0.587,-0.224,-1.350,-0.164,-0.002,-1.773
22.583,0.953,-0.283,-0.519,-4.578,-1.081,-0.460,-89.712,-3.707,-7.778,0.117,0.126,0.277,-0.587,-0.223,-1.349,-0.175,-0.000,-1.743
22.610,1.050,-0.361,-0.655,-4.573,-1.081,-0.471,-89.799,-3.727,-7.787,0.224,-0.002,0.177,-0.586,-0.221,-1.347,-0.178,-0.001,-1.739
22.639,0.528,0.126,0.392,-4.558,-1.082,-0.492,-89.987,-3.772,-7.807,0.082,0.051,0.075,-0.585,-0.221,-1.345,-0.188,-0.001,-1.716
22.667,0.451,0.456,0.992,-4.549,-1.081,-0.500,-90.082,-3.794,-7.817,0.018,0.127,0.020,-0.584,-0.219,-1.343,-0.191,0.005,-1.703
22.695,0.177,-0.377,1.334,-4.535,-1.080,-0.506,-90.255,-3.835,-7.836,0.178,-0.046,0.111,-0.583,-0.218,-1.341,-0.194,0.004,-1.689
22.720,0.558,-0.436,1.300,-4.527,-1.080,-0.505,-90.345,-3.857,-7.846,0.323,-0.217,0.178,-0.582,-0.217,-1.340,-0.197,-0.001,-1.687
22.746,1.140,-0.175,0.461,-4.518,-1.081,-0.501,-90.440,-3.880,-7.857,0.546,0.151,0.224,-0.580,-0.216,-1.337,-0.216,-0.004,-1.662
22.772,1.269,-0.461,-0.648,-4.507,-1.082,-0.499,-90.540,-3.903,-7.868,0.391,0.094,0.156,-0.578,-0.216,-1.336,-0.223,-0.002,-1.645
22.798,-1.551,-1.722,1.757,-4.488,-1.090,-0.496,-90.706,-3.944,-7.886,-0.156,-0.439,-0.050,-0.577,-0.215,-1.334,-0.231,-0.019,-1.641
22.824,-2.290,-0.681,3.248,-4.483,-1.098,-0.489,-90.796,-3.965,-7.896,-0.737,-0.682,-0.586,-0.575,-0.215,-1.332,-0.203,-0.039,-1.686
22.849,-1.301,0.795,0.988,-4.483,-1.104,-0.479,-90.885,-3.987,-7.906,-0.211,-0.231,-0.397,-0.574,-0.216,-1.331,-0.186,-0.050,-1.718
22.876,-0.703,-1.196,-1.564,-4.487,-1.116,-0.463,-91.069,-4.033,-7.925,0.199,0.056,-0.032,-0.574,-0.217,-1.331,-0.180,-0.053,-1.721
22.901,-0.874,-1.330,-0.129,-4.491,-1.123,-0.459,-91.155,-4.054,-7.934,0.178,-0.020,0.120,-0.573,-0.217,-1.330,-0.177,-0.063,-1.719
22.927,-1.372,-1.077,1.352,-4.496,-1.133,-0.454,-91.244,-4.077,-7.943,-0.492,-0.342,-0.105,-0.573,-0.219,-1.329,-0.171,-0.068,-1.726
22.953,0.517,-0.072,-1.217,-4.510,-1.153,-0.443,-91.425,-4.123,-7.961,-0.246,-0.260,-0.162,-0.572,-0.220,-1.329,-0.151,-0.084,-1.758
22.979,1.232,0.065,-3.194,-4.515,-1.162,-0.442,-91.519,-4.147,-7.970,0.276,0.147,-0.119,-0.572,-0.221,-1.328,-0.172,-0.076,-1.739
23.003,1.436,0.051,-3.869,-4.516,-1.170,-0.449,-91.605,-4.169,-7.979,0.525,0.583,-0.079,-0.572,-0.221,-1.328,-0.180,-0.065,-1.735
23.028,0.830,0.046,-2.301,-4.515,-1.177,-0.461,-91.695,-4.192,-7.988,-0.242,0.668,-0.236,-0.571,-0.222,-1.328,-0.195,-0.046,-1.706
23.053,-0.285,0.140,0.584,-4.512,-1.189,-0.487,-91.876,-4.240,-8.007,-0.556,0.343,-0.345,-0.571,-0.221,-1.328,-0.175,-0.023,-1.733
23.078,-0.207,-0.082,0.674,-4.512,-1.194,-0.497,-91.971,-4.265,-8.017,-0.418,-0.039,-0.367,-0.571,-0.221,-1.328,-0.165,-0.023,-1.748
23.104,-0.170,-0.453,0.785,-4.511,-1.199,-0.504,-92.061,-4.289,-8.027,0.222,-0.105,-0.115,-0.571,-0.220,-1.329,-0.167,-0.032,-1.741
23.129,0.285,-0.518,0.444,-4.511,-1.204,-0.509,-92.147,-4.312,-8.037,0.235,0.150,-0.031,-0.571,-0.220,-1.330,-0.170,-0.034,-1.737
23.156,1.155,-0.722,-0.029,-4.507,-1.217,-0.518,-92.327,-4.360,-8.057,0.184,0.258,0.011,-0.571,-0.219,-1.330,-0.183,-0.030,-1.726
23.181,1.187,-0.546,-0.129,-4.501,-1.225,-0.522,-92.422,-4.386,-8.068,0.182,0.232,-0.046,-0.570,-0.219,-1.331,-0.197,-0.027,-1.704
23.207,1.450,-0.377,-0.319,-4.494,-1.232,-0.525,-92.507,-4.409,-8.078,0.291,0.216,-0.075,-0.569,-0.218,-1.332,-0.199,-0.024,-1.728
23.232,1.408,-0.208,-0.198,-4.485,-1.240,-0.529,-92.601,-4.435,-8.089,0.272,0.254,-0.062,-0.568,-0.217,-1.333,-0.217,-0.018,-1.715
23.258,0.678,-0.068,1.219,-4.462,-1.254,-0.534,-92.776,-4.483,-8.110,0.243,0.162,-0.050,-0.567,-0.216,-1.333,-0.230,-0.009,-1.699
23.283,0.390,-0.108,1.292,-4.449,-1.260,-0.533,-92.874,-4.511,-8.122,0.307,0.026,-0.006,-0.565,-0.214,-1.335,-0.233,-0.008,-1.726
23.307,0.198,-0.256,1.063,-4.439,-1.266,-0.529,-92.954,-4.534,-8.131,0.274,0.109,0.029,-0.564,-0.213,-1.335,-0.240,-0.009,-1.707
23.333,-0.054,-0.542,0.842,-4.429,-1.272,-0.524,-93.047,-4.561,-8.142,0.120,0.151,-0.009,-0.562,-0.212,-1.336,-0.243,-0.007,-1.715
23.359,-1.520,0.424,1.850,-4.415,-1.284,-0.510,-93.219,-4.610,-8.163,-0.154,0.033,-0.169,-0.561,-0.211,-1.336,-0.235,-0.007,-1.725
23.385,-1.593,1.047,1.308,-4.413,-1.289,-0.497,-93.321,-4.640,-8.174,-0.155,0.038,-0.232,-0.559,-0.209,-1.338,-0.217,-0.002,-1.743
23.410,-0.905,1.107,0.325,-4.414,-1.290,-0.486,-93.405,-4.664,-8.183,0.040,0.077,-0.046,-0.558,-0.208,-1.339,-0.212,-0.000,-1.734
23.436,-0.969,0.116,0.141,-4.420,-1.289,-0.468,-93.573,-4.713,-8.202,-0.029,-0.119,-0.009,-0.557,-0.207,-1.340,-0.203,0.000,-1.729
23.463,-1.082,0.462,0.632,-4.426,-1.288,-0.459,-93.665,-4.741,-8.211,-0.292,-0.239,-0.132,-0.556,-0.206,-1.341,-0.189,-0.002,-1.758
23.487,-0.500,0.748,-0.146,-4.433,-1.286,-0.450,-93.763,-4.769,-8.221,-0.337,0.173,-0.111,-0.555,-0.205,-1.343,-0.178,-0.004,-1.781
23.516,0.588,0.278,-2.086,-4.444,-1.279,-0.442,-93.927,-4.816,-8.238,-0.115,0.391,0.038,-0.555,-0.204,-1.344,-0.169,0.013,-1.794
23.541,0.489,-0.187,-2.007,-4.447,-1.275,-0.444,-94.016,-4.842,-8.247,0.048,0.365,0.147,-0.555,-0.203,-1.345,-0.176,0.019,-1.786
23.566,0.228,-0.595,-0.912,-4.449,-1.272,-0.448,-94.105,-4.867,-8.256,-0.117,-0.227,0.145,-0.555,-0.201,-1.347,-0.175,0.021,-1.761
23.591,0.140,-0.585,-0.454,-4.451,-1.271,-0.455,-94.216,-4.899,-8.267,-0.100,-0.463,0.064,-0.555,-0.200,-1.347,-0.174,0.012,-1.759
23.616,0.647,-0.100,-1.052,-4.452,-1.271,-0.467,-94.372,-4.944,-8.283,0.092,-0.453,0.002,-0.555,-0.200,-1.348,-0.179,-0.006,-1.760
23.641,0.825,-0.162,-1.326,-4.451,-1.272,-0.476,-94.466,-4.970,-8.293,0.285,-0.323,0.009,-0.555,-0.199,-1.349,-0.183,-0.013,-1.764
23.666,0.664,0.009,-0.979,-4.448,-1.272,-0.486,-94.555,-4.996,-8.302,0.101,-0.159,0.002,-0.554,-0.199,-1.349,-0.195,-0.016,-1.767
23.691,0.559,0.467,-0.437,-4.444,-1.272,-0.496,-94.643,-5.021,-8.312,-0.065,-0.078,-0.066,-0.554,-0.199,-1.350,-0.195,-0.019,-1.780
23.717,0.714,0.549,-0.101,-4.434,-1.269,-0.515,-94.817,-5.071,-8.332,0.000,0.023,0.044,-0.553,-0.199,-1.351,-0.197,-0.014,-1.795
23.741,0.739,0.365,-0.199,-4.428,-1.266,-0.524,-94.910,-5.097,-8.343,0.106,0.005,0.123,-0.553,-0.200,-1.351,-0.205,-0.011,-1.767
23.766,0.605,0.254,0.392,-4.421,-1.263,-0.531,-94.998,-5.123,-8.353,0.134,-0.184,0.154,-0.552,-0.200,-1.352,-0.207,-0.013,-1.755
23.791,0.419,0.083,0.767,-4.413,-1.260,-0.537,-95.086,-5.148,-8.364,0.173,-0.249,0.178,-0.551,-0.200,-1.352,-0.212,-0.016,-1.740
23.815,0.116,-0.326,1.711,-4.399,-1.255,-0.540,-95.263,-5.198,-8.386,0.198,-0.308,0.200,-0.551,-0.201,-1.352,-0.219,-0.030,-1.705
23.840,0.389,-0.287,1.430,-4.392,-1.253,-0.537,-95.351,-5.223,-8.396,0.257,-0.288,0.177,-0.550,-0.201,-1.352,-0.222,-0.037,-1.710
23.867,0.815,-0.100,0.691,-4.385,-1.252,-0.532,-95.438,-5.248,-8.407,0.370,-0.011,0.184,-0.548,-0.203,-1.351,-0.235,-0.041,-1.693
23.891,1.090,0.090,0.213,-4.376,-1.252,-0.526,-95.526,-5.273,-8.418,0.298,0.050,0.150,-0.547,-0.204,-1.351,-0.240,-0.042,-1.686
23.917,-0.091,-1.028,0.587,-4.358,-1.252,-0.516,-95.696,-5.322,-8.438,0.155,-0.180,0.097,-0.545,-0.204,-1.350,-0.254,-0.047,-1.674
23.941,-1.046,-0.665,1.749,-4.350,-1.254,-0.509,-95.788,-5.348,-8.449,-0.062,-0.536,-0.051,-0.544,-0.205,-1.350,-0.245,-0.062,-1.680
23.967,-1.581,0.477,2.157,-4.347,-1.257,-0.499,-95.870,-5.372,-8.458,-0.237,-0.627,-0.255,-0.542,-0.207,-1.350,-0.239,-0.073,-1.697
23.997,-0.372,0.779,-0.338,-4.346,-1.257,-0.473,-96.049,-5.424,-8.478,0.315,-0.104,0.006,-0.540,-0.210,-1.349,-0.235,-0.078,-1.715
24.023,-0.333,0.091,-0.838,-4.348,-1.255,-0.463,-96.136,-5.449,-8.488,0.470,0.104,0.224,-0.539,-0.212,-1.349,-0.241,-0.076,-1.714
24.049,-1.102,-0.501,0.188,-4.350,-1.253,-0.455,-96.222,-5.474,-8.497,-0.137,-0.156,0.076,-0.536,-0.215,-1.349,-0.243,-0.077,-1.701
24.076,-0.722,-0.249,0.093,-4.361,-1.253,-0.438,-96.397,-5.524,-8.515,-0.230,-0.233,-0.059,-0.534,-0.216,-1.348,-0.226,-0.088,-1.723
24.104,0.307,-0.224,-1.534,-4.367,-1.254,-0.432,-96.480,-5.548,-8.523,0.334,0.292,0.057,-0.532,-0.219,-1.348,-0.229,-0.090,-1.706
24.131,1.111,-0.255,-2.895,-4.372,-1.255,-0.430,-96.580,-5.577,-8.533,0.451,0.538,0.158,-0.530,-0.221,-1.347,-0.234,-0.084,-1.693
24.158,1.243,-0.130,-2.789,-4.372,-1.258,-0.444,-96.746,-5.625,-8.549,0.287,0.589,0.132,-0.528,-0.222,-1.347,-0.262,-0.062,-1.644
24.186,0.723,-0.165,-1.593,-4.369,-1.260,-0.458,-96.834,-5.650,-8.558,-0.257,0.222,-0.012,-0.525,-0.222,-1.346,-0.270,-0.053,-1.645
24.212,0.362,-0.198,-0.689,-4.365,-1.262,-0.473,-96.921,-5.675,-8.568,-0.324,-0.046,-0.072,-0.524,-0.223,-1.346,-0.262,-0.048,-1.649
24.239,0.149,-0.711,-0.195,-4.357,-1.267,-0.501,-97.091,-5.724,-8.587,-0.222,-0.249,-0.083,-0.523,-0.223,-1.345,-0.251,-0.056,-1.656
24.266,0.384,-0.411,-0.080,-4.353,-1.271,-0.514,-97.183,-5.751,-8.597,-0.136,-0.087,-0.122,-0.521,-0.224,-1.345,-0.252,-0.063,-1.641
24.292,0.484,-0.356,-0.120,-4.348,-1.276,-0.525,-97.270,-5.776,-8.608,-0.177,0.049,-0.120,-0.520,-0.225,-1.345,-0.247,-0.064,-1.636
24.321,0.932,-0.493,-0.114,-4.337,-1.285,-0.546,-97.443,-5.828,-8.629,-0.209,0.173,-0.071,-0.519,-0.225,-1.345,-0.242,-0.060,-1.636
24.348,1.168,-0.652,-0.403,-4.329,-1.291,-0.555,-97.530,-5.853,-8.640,0.006,0.208,-0.062,-0.518,-0.226,-1.344,-0.252,-0.059,-1.640
24.375,1.558,-0.173,-0.444,-4.308,-1.304,-0.573,-97.703,-5.905,-8.663,-0.013,0.280,-0.089,-0.517,-0.226,-1.344,-0.263,-0.048,-1.621
24.403,1.611,0.084,-0.133,-4.294,-1.310,-0.582,-97.789,-5.931,-8.674,-0.056,0.404,-0.075,-0.517,-0.225,-1.345,-0.260,-0.041,-1.628
24.430,1.106,-0.057,0.649,-4.275,-1.316,-0.591,-97.892,-5.963,-8.689,-0.083,0.292,-0.067,-0.516,-0.225,-1.345,-0.268,-0.031,-1.623
24.457,-0.006,0.083,2.215,-4.249,-1.324,-0.596,-98.045,-6.010,-8.710,-0.039,0.005,-0.100,-0.516,-0.224,-1.345,-0.263,-0.024,-1.623
24.485,-0.105,0.312,2.401,-4.235,-1.328,-0.591,-98.134,-6.038,-8.722,0.221,-0.160,0.015,-0.515,-0.223,-1.346,-0.262,-0.028,-1.627
24.514,0.187,0.404,0.377,-4.214,-1.332,-0.575,-98.295,-6.089,-8.745,0.345,0.167,0.170,-0.514,-0.222,-1.346,-0.271,-0.026,-1.602
24.541,-0.173,0.330,0.333,-4.204,-1.332,-0.565,-98.387,-6.118,-8.757,0.247,0.442,0.252,-0.514,-0.222,-1.346,-0.274,-0.016,-1.580
24.569,-1.087,0.298,1.350,-4.197,-1.332,-0.556,-98.467,-6.143,-8.768,-0.302,-0.055,0.133,-0.512,-0.220,-1.346,-0.270,-0.011,-1.572
24.597,-1.191,0.227,1.119,-4.191,-1.330,-0.530,-98.635,-6.197,-8.789,-0.204,-0.288,0.144,-0.512,-0.219,-1.345,-0.246,-0.016,-1.593
