time,acc_x,acc_y,acc_z,vel_x,vel_y,vel_z,pos_x,pos_y,pos_z,rad_vel_x,rad_vel_y,rad_vel_z,rad_gyro_x,rad_gyro_y,rad_gyro_z,rad_mag_x,rad_mag_y,rad_mag_z
0.076,-0.540,0.380,0.273,0.000,0.000,0.000,0.000,0.000,0.000,-0.303,0.131,0.004,-0.312,-0.003,1.580,-0.312,-0.003,1.580,0.000,0.000,0.000,0.000,0.000,0.000
0.307,-0.242,0.263,0.058,0.000,0.000,0.000,0.000,0.000,0.000,-0.087,-0.033,0.108,-0.284,0.015,1.585,-0.284,0.015,1.585,0.000,0.000,0.000,0.000,0.000,0.000
0.369,-0.209,0.142,0.243,0.000,0.000,0.000,0.000,0.000,0.000,0.005,-0.093,0.144,-0.272,0.010,1.596,-0.272,0.010,1.596,0.000,0.000,0.000,0.000,0.000,0.000
0.424,-0.117,0.109,0.118,0.000,0.000,0.000,0.000,0.000,0.000,0.024,-0.126,0.110,-0.273,0.004,1.600,-0.273,0.004,1.600,0.000,0.000,0.000,0.000,0.000,0.000
0.481,-0.094,0.012,0.131,0.000,0.000,0.000,0.000,0.000,0.000,-0.012,-0.022,0.064,-0.271,-0.004,1.631,-0.271,-0.004,1.631,0.000,0.000,0.000,0.000,0.000,0.000
0.532,-0.137,0.155,0.434,0.000,0.000,0.000,0.000,0.000,0.000,0.004,0.095,0.112,-0.268,-0.002,1.595,-0.268,-0.002,1.595,0.000,0.000,0.000,0.000,0.000,0.000
0.575,0.208,-0.250,0.469,0.000,0.000,0.000,0.000,0.000,0.000,0.088,0.032,0.073,-0.227,0.058,1.604,-0.227,0.058,1.604,0.000,0.000,0.000,0.000,0.000,0.000
0.617,0.552,-0.675,0.141,0.000,0.000,0.000,0.000,0.000,0.000,0.065,-0.012,0.097,-0.195,0.100,1.686,-0.195,0.100,1.686,0.000,0.000,0.000,0.000,0.000,0.000
0.659,0.675,-1.073,0.254,0.000,0.000,0.000,0.000,0.000,0.000,0.059,-0.076,0.132,-0.169,0.129,1.735,-0.169,0.129,1.735,0.000,0.000,0.000,0.000,0.000,0.000
0.692,0.884,-1.373,0.320,0.000,0.000,0.000,0.000,0.000,0.000,0.075,-0.086,0.128,-0.150,0.148,1.721,-0.150,0.148,1.721,0.000,0.000,0.000,0.000,0.000,0.000
0.731,0.955,-1.662,0.351,0.000,0.000,0.000,0.000,0.000,0.000,0.028,-0.002,0.101,-0.134,0.162,1.771,-0.134,0.162,1.771,0.000,0.000,0.000,0.000,0.000,0.000
0.768,1.150,-1.814,0.512,0.000,0.000,0.000,0.000,0.000,0.000,0.038,0.004,0.098,-0.110,0.189,1.857,-0.110,0.189,1.857,0.000,0.000,0.000,0.000,0.000,0.000
0.804,1.465,-2.067,0.484,0.000,0.000,0.000,0.000,0.000,0.000,0.051,-0.199,0.155,-0.100,0.201,1.851,-0.100,0.201,1.851,0.000,0.000,0.000,0.000,0.000,0.000
0.837,1.302,-2.165,0.740,0.000,0.000,0.000,0.000,0.000,0.000,0.057,-0.227,0.169,-0.092,0.202,1.869,-0.092,0.202,1.869,0.000,0.000,0.000,0.000,0.000,0.000
0.868,1.051,-2.075,0.523,0.000,0.000,0.000,0.000,0.000,0.000,-0.029,-0.127,0.191,-0.104,0.184,1.830,-0.104,0.184,1.830,0.000,0.000,0.000,0.000,0.000,0.000
0.897,1.082,-2.418,0.793,0.000,0.000,0.000,0.000,0.000,0.000,-0.064,-0.215,0.266,-0.096,0.183,1.831,-0.096,0.183,1.831,0.000,0.000,0.000,0.000,0.000,0.000
0.926,1.346,-2.824,0.473,0.000,0.000,0.000,0.000,0.000,0.000,-0.214,0.048,0.098,-0.076,0.200,1.871,-0.076,0.200,1.871,0.000,0.000,0.000,0.000,0.000,0.000
0.954,1.381,-2.476,0.940,0.000,0.000,0.000,0.000,0.000,0.000,-0.248,0.325,0.040,-0.061,0.206,1.857,-0.061,0.206,1.857,0.000,0.000,0.000,0.000,0.000,0.000
0.981,1.292,-2.285,0.967,0.000,0.000,0.000,0.000,0.000,0.000,-0.162,0.292,0.022,-0.069,0.196,1.874,-0.069,0.196,1.874,0.000,0.000,0.000,0.000,0.000,0.000
1.008,1.368,-2.591,0.994,0.000,0.000,0.000,0.000,0.000,0.000,-0.112,0.290,0.000,-0.047,0.222,1.942,-0.047,0.222,1.942,0.000,0.000,0.000,0.000,0.000,0.000
1.035,1.222,-2.796,1.042,0.000,0.000,0.000,0.000,0.000,0.000,-0.038,0.181,-0.017,-0.047,0.222,1.942,-0.038,0.237,1.925,0.000,0.000,0.000,0.000,0.000,0.000
1.061,1.116,-2.565,0.877,0.000,0.000,0.000,0.000,0.000,0.000,0.087,0.033,-0.048,-0.047,0.222,1.942,-0.050,0.223,1.878,0.000,0.000,0.000,0.000,0.000,0.000
1.087,1.174,-2.533,0.776,0.000,0.000,0.000,0.000,0.000,0.000,0.122,-0.016,-0.026,-0.047,0.222,1.942,-0.034,0.243,1.900,0.000,0.000,0.000,0.000,0.000,0.000
1.113,1.259,-2.541,0.561,0.000,0.000,0.000,0.000,0.000,0.000,0.215,-0.094,0.002,-0.047,0.222,1.942,-0.035,0.246,1.910,0.000,0.000,0.000,0.000,0.000,0.000
1.140,1.182,-2.450,-0.049,0.000,0.000,0.000,0.000,0.000,0.000,0.238,-0.239,0.037,-0.047,0.222,1.942,-0.054,0.231,1.890,0.000,0.000,0.000,0.000,0.000,0.000
1.166,1.252,-2.623,-0.018,0.000,0.000,0.000,0.000,0.000,0.000,0.154,-0.220,0.040,-0.047,0.222,1.942,-0.043,0.243,1.921,0.000,0.000,0.000,0.000,0.000,0.000
1.191,1.096,-2.471,0.365,0.000,0.000,0.000,0.000,0.000,0.000,0.103,-0.084,0.093,-0.047,0.222,1.942,-0.046,0.238,1.886,0.000,0.000,0.000,0.000,0.000,0.000
1.216,0.949,-2.146,-0.081,0.000,0.000,0.000,0.000,0.000,0.000,-0.020,0.166,0.191,-0.047,0.222,1.942,-0.061,0.224,1.853,0.000,0.000,0.000,0.000,0.000,0.000
1.242,1.183,-2.510,0.494,0.000,0.000,0.000,0.000,0.000,0.000,-0.112,0.175,0.154,-0.047,0.222,1.942,-0.045,0.244,1.888,0.000,0.000,0.000,0.000,0.000,0.000
1.268,1.125,-2.233,0.595,0.000,0.000,0.000,0.000,0.000,0.000,-0.082,0.133,0.139,-0.047,0.222,1.942,-0.057,0.233,1.832,0.000,0.000,0.000,0.000,0.000,0.000
1.304,1.095,-2.344,0.583,0.000,0.000,0.000,0.000,0.000,0.000,-0.021,0.145,0.183,-0.047,0.222,1.942,-0.052,0.239,1.886,0.000,0.000,0.000,0.000,0.000,0.000
1.339,1.308,-2.768,0.373,0.000,0.000,0.000,0.000,0.000,0.000,-0.022,0.158,0.195,-0.047,0.222,1.942,-0.053,0.245,1.922,0.000,0.000,0.000,0.000,0.000,0.000
1.369,1.325,-2.740,0.577,0.000,0.000,0.000,0.000,0.000,0.000,-0.079,0.153,0.134,-0.047,0.222,1.942,-0.055,0.248,1.921,0.000,0.000,0.000,0.000,0.000,0.000
1.403,1.408,-2.799,0.634,0.000,0.000,0.000,0.000,0.000,0.000,-0.065,0.055,0.079,-0.047,0.222,1.942,-0.038,0.265,1.904,0.000,0.000,0.000,0.000,0.000,0.000
1.435,1.454,-2.898,0.537,0.000,0.000,0.000,0.000,0.000,0.000,-0.071,0.079,0.090,-0.047,0.222,1.942,-0.037,0.267,1.949,0.000,0.000,0.000,0.000,0.000,0.000
1.464,1.262,-2.654,0.358,0.000,0.000,0.000,0.000,0.000,0.000,-0.081,0.108,0.065,-0.047,0.222,1.942,-0.052,0.252,1.958,0.000,0.000,0.000,0.000,0.000,0.000
1.490,1.239,-2.599,0.531,0.000,0.000,0.000,0.000,0.000,0.000,-0.086,0.043,0.066,-0.047,0.222,1.942,-0.051,0.254,1.975,0.000,0.000,0.000,0.000,0.000,0.000
1.516,1.308,-2.747,0.742,0.000,0.000,0.000,0.000,0.000,0.000,-0.031,-0.054,0.065,-0.047,0.222,1.942,-0.037,0.267,1.969,0.000,0.000,0.000,0.000,0.000,0.000
1.542,1.156,-2.644,0.665,0.000,0.000,0.000,0.000,0.000,0.000,-0.002,-0.092,0.057,-0.047,0.222,1.942,-0.052,0.250,1.890,0.000,0.000,0.000,0.000,0.000,0.000
1.568,1.265,-2.832,0.665,0.000,0.000,0.000,0.000,0.000,0.000,-0.005,-0.066,0.072,-0.047,0.222,1.942,-0.037,0.261,1.930,0.000,0.000,0.000,0.000,0.000,0.000
1.594,1.282,-2.962,0.747,0.000,0.000,0.000,0.000,0.000,0.000,-0.033,-0.029,0.100,-0.047,0.222,1.942,-0.039,0.254,1.930,0.000,0.000,0.000,0.000,0.000,0.000
1.620,1.235,-2.823,0.742,0.000,0.000,0.000,0.000,0.000,0.000,0.020,-0.018,0.094,-0.047,0.222,1.942,-0.054,0.236,1.858,0.000,0.000,0.000,0.000,0.000,0.000
1.645,1.404,-2.986,0.714,0.000,0.000,0.000,0.000,0.000,0.000,0.078,-0.038,0.084,-0.047,0.222,1.942,-0.041,0.248,1.890,0.000,0.000,0.000,0.000,0.000,0.000
1.670,1.524,-3.084,0.346,0.000,0.000,0.000,0.000,0.000,0.000,0.119,-0.066,0.057,-0.047,0.222,1.942,-0.047,0.241,1.933,0.000,0.000,0.000,0.000,0.000,0.000
1.695,1.443,-2.881,0.295,0.000,0.000,0.000,0.000,0.000,0.000,0.061,-0.059,0.046,-0.047,0.222,1.942,-0.068,0.224,1.869,0.000,0.000,0.000,0.000,0.000,0.000
1.721,1.542,-2.964,0.556,0.000,0.000,0.000,0.000,0.000,0.000,-0.006,-0.027,0.024,-0.047,0.222,1.942,-0.055,0.234,1.865,0.000,0.000,0.000,0.000,0.000,0.000
1.745,1.464,-2.749,0.515,0.000,0.000,0.000,0.000,0.000,0.000,-0.026,0.002,0.016,-0.047,0.222,1.942,-0.072,0.218,1.806,0.000,0.000,0.000,0.000,0.000,0.000
1.770,1.568,-2.486,0.656,0.000,0.000,0.000,0.000,0.000,0.000,-0.071,-0.033,-0.009,-0.047,0.222,1.942,-0.073,0.215,1.795,0.000,0.000,0.000,0.000,0.000,0.000
1.795,1.766,-2.529,0.700,0.000,0.000,0.000,0.000,0.000,0.000,-0.061,-0.017,0.026,-0.047,0.222,1.942,-0.057,0.225,1.854,0.000,0.000,0.000,0.000,0.000,0.000
1.821,1.795,-2.395,0.521,0.000,0.000,0.000,0.000,0.000,0.000,-0.050,0.024,0.067,-0.047,0.222,1.942,-0.073,0.212,1.815,0.000,0.000,0.000,0.000,0.000,0.000
1.846,1.978,-2.649,0.404,0.000,0.000,0.000,0.000,0.000,0.000,-0.068,0.068,0.079,-0.047,0.222,1.942,-0.058,0.222,1.860,0.000,0.000,0.000,0.000,0.000,0.000
1.871,2.038,-2.627,0.128,0.000,0.000,0.000,0.000,0.000,0.000,-0.061,0.051,0.109,-0.047,0.222,1.942,-0.062,0.223,1.802,0.000,0.000,0.000,0.000,0.000,0.000
1.896,1.826,-2.586,0.145,0.000,0.000,0.000,0.000,0.000,0.000,-0.033,-0.015,0.110,-0.047,0.222,1.942,-0.080,0.211,1.767,0.000,0.000,0.000,0.000,0.000,0.000
1.922,1.842,-2.865,-0.006,0.000,0.000,0.000,0.000,0.000,0.000,-0.013,-0.005,0.106,-0.047,0.222,1.942,-0.065,0.220,1.807,0.000,0.000,0.000,0.000,0.000,0.000
1.946,1.667,-2.835,-0.103,0.000,0.000,0.000,0.000,0.000,0.000,-0.066,0.009,0.093,-0.047,0.222,1.942,-0.086,0.205,1.767,0.000,0.000,0.000,0.000,0.000,0.000
1.971,1.575,-2.739,0.052,0.000,0.000,0.000,0.000,0.000,0.000,-0.109,0.000,0.064,-0.047,0.222,1.942,-0.088,0.200,1.721,0.000,0.000,0.000,0.000,0.000,0.000
2.002,1.849,-2.805,-0.020,0.000,0.000,0.000,0.000,0.000,0.000,-0.117,0.065,0.083,-0.047,0.222,1.942,-0.071,0.209,1.742,0.000,0.000,0.000,0.000,0.000,0.000
2.034,2.165,-2.546,-0.091,0.007,-0.009,-0.001,0.000,-0.000,-0.000,-0.158,0.035,0.100,-0.048,0.223,1.942,-0.073,0.208,1.754,0.000,0.000,0.000,0.000,0.000,0.000
2.079,2.035,-2.306,0.721,0.027,-0.033,-0.000,0.001,-0.001,-0.000,-0.032,-0.227,0.176,-0.051,0.222,1.944,-0.072,0.204,1.762,0.000,0.000,0.000,0.000,0.000,0.000
2.123,2.010,-2.812,0.395,0.058,-0.070,0.004,0.002,-0.003,0.000,0.054,-0.108,0.252,-0.053,0.220,1.948,-0.076,0.191,1.760,0.000,0.000,0.000,0.000,0.000,0.000
2.157,2.051,-3.121,0.273,0.098,-0.122,0.011,0.006,-0.007,0.000,0.106,-0.086,0.216,-0.053,0.217,1.952,-0.086,0.178,1.758,0.000,0.000,0.000,0.000,0.000,0.000
2.188,1.939,-2.898,0.074,0.125,-0.159,0.015,0.008,-0.010,0.001,0.150,-0.092,0.182,-0.053,0.214,1.957,-0.110,0.162,1.676,0.000,0.000,0.000,0.000,0.000,0.000
2.220,1.997,-2.774,-0.146,0.172,-0.223,0.021,0.014,-0.017,0.001,0.120,0.010,0.192,-0.051,0.211,1.964,-0.125,0.153,1.700,0.000,0.000,0.000,0.000,0.000,0.000
2.252,1.998,-2.605,-0.121,0.230,-0.301,0.025,0.022,-0.028,0.002,0.081,0.056,0.195,-0.048,0.209,1.969,-0.136,0.148,1.665,0.000,0.000,0.000,0.000,0.000,0.000
2.285,2.036,-2.769,-0.023,0.260,-0.343,0.027,0.026,-0.034,0.003,0.031,0.024,0.186,-0.046,0.209,1.974,-0.124,0.155,1.687,0.000,0.000,0.000,0.000,0.000,0.000
2.321,2.027,-2.374,0.687,0.324,-0.428,0.030,0.038,-0.049,0.004,-0.015,0.050,0.182,-0.044,0.208,1.980,-0.131,0.151,1.705,0.000,0.000,0.000,0.000,0.000,0.000
2.351,1.565,-2.291,1.553,0.389,-0.515,0.039,0.052,-0.068,0.005,0.043,0.004,0.192,-0.042,0.208,1.987,-0.135,0.147,1.698,0.000,0.000,0.000,0.000,0.000,0.000
2.384,1.337,-1.966,1.856,0.422,-0.558,0.048,0.061,-0.079,0.006,0.198,0.016,0.078,-0.041,0.208,1.993,-0.149,0.135,1.647,0.000,0.000,0.000,0.000,0.000,0.000
2.419,0.962,-1.490,2.337,0.484,-0.644,0.074,0.079,-0.103,0.009,0.520,-0.065,-0.250,-0.038,0.209,1.997,-0.151,0.130,1.703,0.000,0.000,0.000,0.000,0.000,0.000
2.452,1.376,-0.179,0.705,0.543,-0.722,0.110,0.099,-0.130,0.012,0.375,-0.150,-0.017,-0.030,0.208,1.999,-0.166,0.133,1.668,0.000,0.000,0.000,0.000,0.000,0.000
2.486,0.852,-1.507,0.831,0.572,-0.757,0.128,0.110,-0.145,0.015,0.280,-0.198,0.120,-0.022,0.206,1.999,-0.161,0.135,1.669,0.000,0.000,0.000,0.000,0.000,0.000
2.518,0.671,-1.461,0.242,0.626,-0.826,0.163,0.134,-0.177,0.020,0.264,-0.331,-0.073,-0.014,0.203,2.000,-0.170,0.121,1.619,0.000,0.000,0.000,0.000,0.000,0.000
2.556,0.412,-0.919,-0.109,0.674,-0.892,0.193,0.160,-0.211,0.028,0.042,-0.051,-0.020,-0.004,0.196,2.001,-0.172,0.107,1.654,0.000,0.000,0.000,0.000,0.000,0.000
2.590,0.087,-1.611,-1.698,0.715,-0.953,0.212,0.188,-0.248,0.036,-0.048,0.507,0.187,0.002,0.193,2.001,-0.168,0.113,1.653,0.000,0.000,0.000,0.000,0.000,0.000
2.620,0.213,-1.331,-2.123,0.733,-0.983,0.215,0.203,-0.268,0.040,-0.203,0.777,0.182,0.006,0.196,2.003,-0.178,0.121,1.656,0.000,0.000,0.000,0.000,0.000,0.000
2.650,0.521,-0.941,-2.293,0.766,-1.041,0.208,0.233,-0.308,0.048,-0.142,0.523,0.239,0.007,0.206,2.006,-0.174,0.154,1.667,0.000,0.000,0.000,0.000,0.000,0.000
2.676,0.600,-1.322,-2.498,0.781,-1.069,0.198,0.248,-0.329,0.052,-0.110,0.327,0.283,0.006,0.213,2.009,-0.161,0.166,1.673,0.000,0.000,0.000,0.000,0.000,0.000
2.702,0.352,-1.430,-2.233,0.797,-1.098,0.183,0.265,-0.352,0.056,-0.279,0.176,0.263,0.005,0.222,2.013,-0.174,0.169,1.631,0.000,0.000,0.000,0.000,0.000,0.000
2.727,0.344,-1.490,-1.333,0.812,-1.127,0.167,0.282,-0.375,0.060,-0.312,0.061,0.191,0.003,0.228,2.017,-0.160,0.176,1.636,0.000,0.000,0.000,0.000,0.000,0.000
2.753,0.760,-0.957,-0.135,0.837,-1.179,0.137,0.313,-0.419,0.066,-0.068,-0.104,0.246,-0.002,0.235,2.023,-0.148,0.175,1.638,0.000,0.000,0.000,0.000,0.000,0.000
2.779,1.065,-1.138,-0.448,0.851,-1.206,0.123,0.330,-0.443,0.069,0.004,-0.053,0.316,-0.005,0.239,2.029,-0.160,0.169,1.622,0.000,0.000,0.000,0.000,0.000,0.000
2.808,1.331,-1.375,-0.475,0.866,-1.232,0.109,0.347,-0.467,0.071,-0.016,0.086,0.347,-0.007,0.241,2.033,-0.151,0.169,1.631,0.000,0.000,0.000,0.000,0.000,0.000
2.835,1.654,-1.596,-0.343,0.899,-1.285,0.083,0.382,-0.518,0.075,0.050,0.160,0.382,-0.009,0.245,2.042,-0.158,0.169,1.632,0.000,0.000,0.000,0.000,0.000,0.000
2.859,1.631,-1.639,-0.382,0.918,-1.312,0.071,0.400,-0.544,0.076,0.130,0.038,0.314,-0.010,0.248,2.050,-0.178,0.167,1.668,0.000,0.000,0.000,0.000,0.000,0.000
2.884,1.703,-1.759,-0.205,0.940,-1.341,0.059,0.420,-0.571,0.078,0.094,-0.101,0.261,-0.010,0.250,2.056,-0.173,0.170,1.695,0.000,0.000,0.000,0.000,0.000,0.000
2.909,1.435,-1.618,1.047,0.983,-1.397,0.042,0.457,-0.625,0.080,0.016,-0.167,0.209,-0.009,0.251,2.062,-0.184,0.160,1.671,0.000,0.000,0.000,0.000,0.000,0.000
2.935,1.390,-1.462,1.053,1.006,-1.426,0.037,0.477,-0.653,0.080,0.067,0.062,0.217,-0.009,0.251,2.070,-0.198,0.150,1.646,0.000,0.000,0.000,0.000,0.000,0.000
2.961,1.735,-1.586,0.290,1.029,-1.456,0.034,0.498,-0.682,0.081,0.202,0.128,0.237,-0.008,0.252,2.077,-0.191,0.153,1.652,0.000,0.000,0.000,0.000,0.000,0.000
2.986,1.047,-2.081,-0.517,1.053,-1.486,0.031,0.519,-0.711,0.082,0.081,-0.183,0.088,-0.006,0.253,2.082,-0.213,0.147,1.633,0.000,0.000,0.000,0.000,0.000,0.000
3.011,-0.398,-1.372,-0.000,1.099,-1.550,0.021,0.562,-0.772,0.083,-0.817,-0.617,-0.327,-0.006,0.252,2.088,-0.210,0.131,1.630,0.000,0.000,0.000,0.000,0.000,0.000
3.043,0.060,0.455,2.759,1.118,-1.580,0.018,0.584,-0.803,0.083,-1.081,-0.809,-0.204,-0.011,0.246,2.090,-0.186,0.122,1.604,0.000,0.000,0.000,0.000,0.000,0.000
3.075,-0.343,0.112,3.900,1.150,-1.629,0.032,0.629,-0.868,0.084,-0.199,-0.601,0.191,-0.024,0.235,2.090,-0.128,0.090,1.578,0.000,0.000,0.000,0.000,0.000,0.000
3.108,-0.473,-1.304,2.561,1.161,-1.651,0.049,0.652,-0.900,0.085,0.922,-0.318,0.432,-0.033,0.224,2.091,-0.125,0.065,1.589,0.000,0.000,0.000,0.000,0.000,0.000
3.140,-0.515,-3.340,-1.226,1.179,-1.701,0.086,0.700,-0.969,0.088,0.951,-0.227,-0.017,-0.031,0.209,2.097,-0.166,0.030,1.612,0.000,0.000,0.000,0.000,0.000,0.000
3.173,-0.916,-1.446,-1.876,1.187,-1.763,0.100,0.746,-1.037,0.091,-0.659,-0.144,-0.705,-0.023,0.199,2.099,-0.194,0.009,1.612,0.000,0.000,0.000,0.000,0.000,0.000
3.206,-0.139,0.559,-0.216,1.189,-1.794,0.100,0.770,-1.072,0.093,-1.189,0.264,-0.671,-0.022,0.191,2.096,-0.175,0.010,1.558,0.000,0.000,0.000,0.000,0.000,0.000
3.241,0.538,0.760,0.329,1.192,-1.843,0.103,0.818,-1.145,0.097,-0.674,0.441,-0.172,-0.030,0.187,2.088,-0.117,0.032,1.513,0.000,0.000,0.000,0.000,0.000,0.000
3.274,1.018,-0.859,-1.384,1.199,-1.879,0.105,0.866,-1.219,0.101,0.360,0.391,0.237,-0.043,0.188,2.079,-0.100,0.052,1.522,0.000,0.000,0.000,0.000,0.000,0.000
3.308,1.119,-1.302,-2.521,1.206,-1.899,0.100,0.892,-1.261,0.104,0.457,0.292,0.288,-0.048,0.192,2.077,-0.127,0.059,1.541,0.000,0.000,0.000,0.000,0.000,0.000
3.342,1.053,-1.695,-2.486,1.225,-1.945,0.076,0.949,-1.351,0.108,0.093,0.121,0.232,-0.048,0.200,2.078,-0.164,0.069,1.538,0.000,0.000,0.000,0.000,0.000,0.000
3.374,1.165,-1.929,-1.466,1.241,-1.980,0.049,0.987,-1.412,0.110,0.053,0.065,0.214,-0.046,0.206,2.081,-0.181,0.065,1.534,0.000,0.000,0.000,0.000,0.000,0.000
3.408,0.749,-2.543,-1.049,1.255,-2.009,0.028,1.015,-1.456,0.111,-0.002,0.105,0.093,-0.044,0.210,2.085,-0.177,0.066,1.550,0.000,0.000,0.000,0.000,0.000,0.000
3.441,1.118,-0.530,0.409,1.279,-2.061,-0.007,1.063,-1.533,0.111,-0.257,0.209,0.007,-0.044,0.215,2.089,-0.187,0.062,1.519,0.000,0.000,0.000,0.000,0.000,0.000
3.475,1.075,-0.027,1.216,1.307,-2.110,-0.033,1.115,-1.617,0.110,0.117,0.442,0.342,-0.045,0.221,2.092,-0.176,0.072,1.497,0.000,0.000,0.000,0.000,0.000,0.000
3.506,1.083,-0.367,0.760,1.322,-2.130,-0.040,1.141,-1.659,0.110,0.287,0.448,0.429,-0.045,0.228,2.096,-0.186,0.080,1.531,0.000,0.000,0.000,0.000,0.000,0.000
3.535,1.297,-0.099,1.201,1.355,-2.167,-0.048,1.194,-1.745,0.108,0.182,0.181,0.428,-0.043,0.237,2.103,-0.199,0.095,1.512,0.000,0.000,0.000,0.000,0.000,0.000
3.563,1.128,-0.261,1.357,1.373,-2.184,-0.047,1.222,-1.789,0.107,0.236,0.211,0.575,-0.040,0.244,2.111,-0.198,0.097,1.510,0.000,0.000,0.000,0.000,0.000,0.000
3.591,0.037,-1.056,-0.002,1.407,-2.216,-0.042,1.277,-1.877,0.105,-0.138,0.498,0.362,-0.036,0.252,2.123,-0.209,0.097,1.499,0.000,0.000,0.000,0.000,0.000,0.000
3.620,-0.698,-0.426,0.427,1.421,-2.232,-0.040,1.306,-1.921,0.104,-0.674,0.698,0.067,-0.036,0.262,2.133,-0.204,0.100,1.531,0.000,0.000,0.000,0.000,0.000,0.000
3.648,-0.650,0.185,0.522,1.433,-2.248,-0.036,1.336,-1.968,0.103,-0.516,0.821,-0.017,-0.038,0.271,2.139,-0.187,0.113,1.537,0.000,0.000,0.000,0.000,0.000,0.000
3.676,-0.830,-0.861,-1.822,1.449,-2.273,-0.032,1.392,-2.056,0.102,-0.621,0.401,-0.395,-0.044,0.286,2.145,-0.160,0.141,1.537,0.000,0.000,0.000,0.000,0.000,0.000
3.705,-0.305,-0.005,-0.917,1.453,-2.286,-0.034,1.421,-2.102,0.101,-1.456,-0.088,-0.783,-0.054,0.298,2.145,-0.145,0.152,1.502,0.000,0.000,0.000,0.000,0.000,0.000
3.731,-0.317,2.104,1.743,1.459,-2.300,-0.035,1.479,-2.194,0.100,-1.152,-0.744,-0.583,-0.075,0.307,2.139,-0.074,0.154,1.538,0.000,0.000,0.000,0.000,0.000,0.000
3.763,-0.167,1.447,1.480,1.461,-2.300,-0.031,1.510,-2.242,0.099,-0.326,-0.781,-0.175,-0.094,0.307,2.132,-0.050,0.140,1.487,0.000,0.000,0.000,0.000,0.000,0.000
3.789,0.463,0.039,-0.440,1.464,-2.296,-0.020,1.567,-2.331,0.098,-0.078,-0.440,0.031,-0.107,0.303,2.127,-0.032,0.112,1.463,0.000,0.000,0.000,0.000,0.000,0.000
3.815,0.735,-0.245,-0.718,1.467,-2.294,-0.016,1.596,-2.377,0.098,-0.165,0.011,0.288,-0.124,0.297,2.121,-0.037,0.110,1.446,0.000,0.000,0.000,0.000,0.000,0.000
3.841,1.119,-0.399,-0.404,1.472,-2.293,-0.014,1.627,-2.426,0.098,-0.028,0.021,0.420,-0.136,0.292,2.120,-0.035,0.110,1.445,0.000,0.000,0.000,0.000,0.000,0.000
3.867,1.179,-0.657,-0.286,1.479,-2.293,-0.012,1.659,-2.476,0.097,0.249,-0.117,0.478,-0.142,0.290,2.121,-0.045,0.113,1.441,0.000,0.000,0.000,0.000,0.000,0.000
3.898,1.101,-1.138,-0.659,1.494,-2.297,-0.012,1.714,-2.561,0.097,0.519,-0.271,0.363,-0.148,0.285,2.128,-0.071,0.106,1.473,0.000,0.000,0.000,0.000,0.000,0.000
3.929,0.983,-1.107,-0.571,1.504,-2.303,-0.013,1.744,-2.607,0.097,0.464,-0.186,0.343,-0.148,0.281,2.132,-0.083,0.100,1.477,0.000,0.000,0.000,0.000,0.000,0.000
3.962,0.830,-0.957,-0.273,1.527,-2.318,-0.019,1.805,-2.699,0.096,0.180,0.092,0.140,-0.143,0.276,2.142,-0.105,0.091,1.442,0.000,0.000,0.000,0.000,0.000,0.000
3.996,1.191,-0.201,0.210,1.552,-2.336,-0.025,1.867,-2.792,0.095,0.068,0.112,0.067,-0.138,0.273,2.149,-0.114,0.094,1.421,0.000,0.000,0.000,0.000,0.000,0.000
4.030,1.460,0.362,1.227,1.582,-2.351,-0.025,1.929,-2.886,0.094,0.015,0.104,0.044,-0.134,0.272,2.154,-0.115,0.101,1.461,0.000,0.000,0.000,0.000,0.000,0.000
4.063,1.324,0.228,1.662,1.598,-2.357,-0.022,1.961,-2.933,0.094,0.170,-0.087,0.208,-0.130,0.272,2.160,-0.123,0.104,1.460,0.000,0.000,0.000,0.000,0.000,0.000
4.097,1.014,-0.037,1.172,1.633,-2.366,-0.006,2.026,-3.028,0.093,0.492,-0.171,0.274,-0.126,0.271,2.165,-0.131,0.100,1.430,0.000,0.000,0.000,0.000,0.000,0.000
4.130,0.421,-1.712,-1.084,1.669,-2.378,0.009,2.092,-3.123,0.093,0.445,-0.269,0.280,-0.120,0.270,2.170,-0.161,0.085,1.449,0.000,0.000,0.000,0.000,0.000,0.000
4.162,-0.798,-1.259,0.797,1.685,-2.387,0.015,2.125,-3.170,0.093,-0.980,-0.432,-0.268,-0.111,0.264,2.178,-0.158,0.077,1.427,0.000,0.000,0.000,0.000,0.000,0.000
4.195,-0.943,1.408,3.464,1.707,-2.402,0.038,2.193,-3.266,0.094,-0.563,-0.200,-0.263,-0.115,0.256,2.180,-0.109,0.054,1.425,0.000,0.000,0.000,0.000,0.000,0.000
4.227,-0.196,1.147,1.975,1.715,-2.404,0.058,2.229,-3.316,0.095,0.349,0.037,0.073,-0.120,0.250,2.180,-0.091,0.052,1.446,0.000,0.000,0.000,0.000,0.000,0.000
4.260,-0.284,-0.593,-0.436,1.726,-2.406,0.095,2.296,-3.410,0.098,-0.266,-0.134,0.021,-0.123,0.244,2.180,-0.098,0.048,1.431,0.000,0.000,0.000,0.000,0.000,0.000
4.288,-0.510,-0.469,0.620,1.730,-2.409,0.111,2.332,-3.461,0.101,-0.211,-0.024,-0.005,-0.125,0.241,2.181,-0.094,0.043,1.433,0.000,0.000,0.000,0.000,0.000,0.000
4.315,0.127,-0.672,0.160,1.735,-2.415,0.141,2.400,-3.555,0.106,0.200,0.138,-0.026,-0.127,0.237,2.181,-0.082,0.037,1.451,0.000,0.000,0.000,0.000,0.000,0.000
4.344,0.333,-0.645,-0.768,1.738,-2.422,0.160,2.450,-3.625,0.110,0.483,0.208,0.012,-0.127,0.235,2.181,-0.094,0.040,1.428,0.000,0.000,0.000,0.000,0.000,0.000
4.374,0.622,-1.060,-2.293,1.743,-2.431,0.171,2.504,-3.700,0.115,0.584,0.242,0.120,-0.123,0.236,2.182,-0.118,0.048,1.400,0.000,0.000,0.000,0.000,0.000,0.000
4.406,0.740,-1.394,-2.487,1.749,-2.441,0.171,2.543,-3.754,0.119,0.453,0.187,0.203,-0.116,0.239,2.183,-0.125,0.053,1.408,0.000,0.000,0.000,0.000,0.000,0.000
4.438,0.559,-1.534,-1.801,1.760,-2.463,0.159,2.609,-3.847,0.125,0.353,0.073,0.209,-0.106,0.242,2.186,-0.153,0.057,1.400,0.000,0.000,0.000,0.000,0.000,0.000
4.469,0.461,-1.338,-0.931,1.773,-2.493,0.136,2.680,-3.946,0.131,0.329,-0.131,0.101,-0.097,0.245,2.189,-0.173,0.053,1.384,0.000,0.000,0.000,0.000,0.000,0.000
4.501,0.448,-1.020,-0.569,1.780,-2.509,0.123,2.716,-3.996,0.134,0.180,-0.046,0.035,-0.085,0.246,2.193,-0.191,0.045,1.348,0.000,0.000,0.000,0.000,0.000,0.000
4.535,0.835,-0.480,0.225,1.795,-2.543,0.100,2.787,-4.097,0.138,-0.009,0.108,0.027,-0.076,0.246,2.196,-0.201,0.043,1.344,0.000,0.000,0.000,0.000,0.000,0.000
4.568,1.060,0.006,1.012,1.804,-2.558,0.091,2.823,-4.148,0.140,-0.062,0.133,0.094,-0.071,0.247,2.198,-0.196,0.044,1.361,0.000,0.000,0.000,0.000,0.000,0.000
4.600,1.623,0.408,1.569,1.826,-2.583,0.083,2.896,-4.251,0.143,0.457,0.217,0.588,-0.064,0.249,2.203,-0.197,0.051,1.390,0.000,0.000,0.000,0.000,0.000,0.000
4.629,1.399,-0.135,0.881,1.840,-2.593,0.084,2.932,-4.303,0.145,0.389,0.269,0.716,-0.060,0.251,2.207,-0.213,0.056,1.370,0.000,0.000,0.000,0.000,0.000,0.000
4.658,0.526,-0.969,0.786,1.872,-2.612,0.089,3.007,-4.407,0.149,-0.075,0.144,0.593,-0.050,0.257,2.222,-0.231,0.056,1.383,0.000,0.000,0.000,0.000,0.000,0.000
4.686,-0.316,-1.137,1.598,1.887,-2.623,0.094,3.046,-4.462,0.150,-0.395,-0.343,0.076,-0.047,0.260,2.231,-0.229,0.058,1.390,0.000,0.000,0.000,0.000,0.000,0.000
4.720,0.289,1.989,2.950,1.912,-2.642,0.113,3.120,-4.564,0.154,-0.414,-0.122,-0.348,-0.047,0.261,2.242,-0.205,0.042,1.418,0.000,0.000,0.000,0.000,0.000,0.000
4.752,0.662,1.321,0.767,1.935,-2.643,0.148,3.197,-4.670,0.160,0.191,0.513,0.144,-0.051,0.261,2.246,-0.179,0.048,1.410,0.000,0.000,0.000,0.000,0.000,0.000
4.788,0.453,0.729,-0.657,1.948,-2.640,0.166,3.240,-4.728,0.163,0.092,0.243,0.048,-0.052,0.263,2.249,-0.182,0.064,1.441,0.000,0.000,0.000,0.000,0.000,0.000
4.820,0.044,0.648,-0.878,1.968,-2.631,0.189,3.314,-4.828,0.170,-0.200,0.035,0.112,-0.053,0.268,2.252,-0.179,0.080,1.431,0.000,0.000,0.000,0.000,0.000,0.000
4.853,-0.693,-0.493,-1.668,1.985,-2.621,0.200,3.393,-4.933,0.178,-0.029,0.067,0.177,-0.055,0.272,2.256,-0.170,0.077,1.388,0.000,0.000,0.000,0.000,0.000,0.000
4.887,-0.586,-0.693,-2.168,1.990,-2.618,0.199,3.433,-4.986,0.182,-0.133,0.136,0.028,-0.057,0.275,2.260,-0.165,0.077,1.367,0.000,0.000,0.000,0.000,0.000,0.000
4.920,-0.221,-0.358,-1.817,1.997,-2.615,0.188,3.513,-5.090,0.190,0.183,-0.155,0.048,-0.059,0.279,2.264,-0.160,0.083,1.426,0.000,0.000,0.000,0.000,0.000,0.000
4.955,-0.222,-0.478,-2.001,2.000,-2.617,0.163,3.593,-5.195,0.197,0.173,-0.397,-0.042,-0.059,0.279,2.266,-0.168,0.078,1.447,0.000,0.000,0.000,0.000,0.000,0.000
4.988,-0.179,-0.213,-1.417,2.001,-2.619,0.147,3.633,-5.247,0.200,0.106,-0.384,-0.098,-0.058,0.277,2.267,-0.174,0.072,1.427,0.000,0.000,0.000,0.000,0.000,0.000
5.021,0.567,0.198,-1.298,2.002,-2.623,0.110,3.717,-5.358,0.205,0.131,-0.026,-0.002,-0.055,0.270,2.268,-0.180,0.065,1.404,0.000,0.000,0.000,0.000,0.000,0.000
5.055,1.065,0.111,-0.972,2.008,-2.624,0.074,3.793,-5.457,0.209,0.037,0.062,0.028,-0.052,0.266,2.268,-0.189,0.071,1.424,0.000,0.000,0.000,0.000,0.000,0.000
5.086,1.211,0.376,-0.446,2.014,-2.625,0.055,3.833,-5.510,0.210,0.140,0.031,0.071,-0.050,0.264,2.268,-0.188,0.071,1.419,0.000,0.000,0.000,0.000,0.000,0.000
5.120,0.643,-0.081,-0.178,2.030,-2.623,0.020,3.914,-5.615,0.211,0.390,-0.193,0.120,-0.045,0.262,2.269,-0.196,0.078,1.438,0.000,0.000,0.000,0.000,0.000,0.000
5.151,0.384,-0.087,0.617,2.048,-2.623,-0.008,3.996,-5.720,0.212,0.090,-0.225,-0.002,-0.040,0.259,2.271,-0.213,0.070,1.427,0.000,0.000,0.000,0.000,0.000,0.000
5.181,0.691,0.276,1.234,2.057,-2.623,-0.018,4.037,-5.772,0.211,0.050,-0.044,0.151,-0.035,0.256,2.272,-0.216,0.067,1.397,0.000,0.000,0.000,0.000,0.000,0.000
5.212,1.104,-0.315,1.118,2.077,-2.622,-0.027,4.119,-5.877,0.210,0.401,-0.116,0.216,-0.030,0.252,2.275,-0.224,0.063,1.380,0.000,0.000,0.000,0.000,0.000,0.000
5.244,-0.214,-1.018,-1.038,2.088,-2.624,-0.030,4.161,-5.929,0.210,-0.068,-0.520,-0.119,-0.025,0.249,2.277,-0.230,0.060,1.409,0.000,0.000,0.000,0.000,0.000,0.000
5.277,-0.387,1.070,1.379,2.105,-2.627,-0.039,4.245,-6.034,0.208,-1.185,-0.279,-0.140,-0.022,0.242,2.279,-0.223,0.040,1.380,0.000,0.000,0.000,0.000,0.000,0.000
5.306,-0.311,1.333,2.420,2.111,-2.626,-0.038,4.287,-6.087,0.208,-0.772,0.099,0.203,-0.028,0.236,2.279,-0.187,0.035,1.374,0.000,0.000,0.000,0.000,0.000,0.000
5.339,-0.306,0.072,1.047,2.124,-2.617,-0.024,4.391,-6.215,0.206,0.055,-0.313,0.285,-0.041,0.230,2.281,-0.150,0.033,1.379,0.000,0.000,0.000,0.000,0.000,0.000
5.372,-0.651,-0.126,0.771,2.128,-2.612,-0.012,4.457,-6.296,0.205,-0.156,-0.615,0.062,-0.049,0.221,2.285,-0.146,0.007,1.392,0.000,0.000,0.000,0.000,0.000,0.000
5.406,-0.652,-0.010,0.863,2.128,-2.610,-0.002,4.499,-6.349,0.205,-0.250,-0.073,0.034,-0.055,0.212,2.288,-0.141,-0.005,1.387,0.000,0.000,0.000,0.000,0.000,0.000
5.440,0.297,-0.003,-0.618,2.126,-2.606,0.016,4.584,-6.453,0.206,-0.325,0.400,-0.021,-0.063,0.202,2.291,-0.127,-0.010,1.353,0.000,0.000,0.000,0.000,0.000,0.000
5.474,0.916,0.146,-1.121,2.129,-2.603,0.025,4.669,-6.557,0.206,-0.144,0.283,0.145,-0.071,0.201,2.292,-0.116,0.010,1.354,0.000,0.000,0.000,0.000,0.000,0.000
5.509,0.785,-0.854,-1.627,2.137,-2.600,0.023,4.755,-6.661,0.207,0.161,0.222,0.485,-0.077,0.202,2.295,-0.122,0.020,1.344,0.000,0.000,0.000,0.000,0.000,0.000
5.542,0.853,-1.399,-1.670,2.143,-2.603,0.017,4.800,-6.716,0.208,0.276,0.232,0.577,-0.081,0.206,2.304,-0.141,0.025,1.366,0.000,0.000,0.000,0.000,0.000,0.000
5.575,0.965,-2.319,-1.238,2.158,-2.616,-0.000,4.883,-6.818,0.208,0.310,0.022,0.319,-0.080,0.210,2.314,-0.171,0.025,1.360,0.000,0.000,0.000,0.000,0.000,0.000
5.607,1.078,-2.034,-0.966,2.168,-2.630,-0.012,4.929,-6.873,0.208,0.064,-0.319,0.017,-0.077,0.213,2.323,-0.175,0.024,1.316,0.000,0.000,0.000,0.000,0.000,0.000
5.638,0.734,-0.664,0.879,2.189,-2.659,-0.033,5.014,-6.976,0.207,-0.144,-0.326,-0.037,-0.075,0.212,2.330,-0.186,0.009,1.342,0.000,0.000,0.000,0.000,0.000,0.000
5.667,1.025,-0.378,1.750,2.202,-2.676,-0.039,5.062,-7.035,0.206,-0.039,-0.198,0.139,-0.074,0.210,2.335,-0.189,0.003,1.332,0.000,0.000,0.000,0.000,0.000,0.000
5.695,1.182,-0.708,1.479,2.227,-2.703,-0.040,5.146,-7.137,0.205,0.368,0.017,0.294,-0.073,0.206,2.340,-0.193,-0.006,1.304,0.000,0.000,0.000,0.000,0.000,0.000
5.725,1.206,-0.890,0.994,2.242,-2.717,-0.035,5.191,-7.191,0.204,0.494,0.020,0.351,-0.070,0.203,2.346,-0.197,-0.008,1.326,0.000,0.000,0.000,0.000,0.000,0.000
5.755,1.094,-0.739,1.245,2.273,-2.746,-0.022,5.281,-7.300,0.203,0.505,-0.115,0.314,-0.063,0.201,2.354,-0.221,-0.011,1.335,0.000,0.000,0.000,0.000,0.000,0.000
5.780,1.031,-0.703,1.166,2.290,-2.761,-0.013,5.327,-7.355,0.203,0.661,0.170,0.175,-0.054,0.200,2.361,-0.239,-0.015,1.327,0.000,0.000,0.000,0.000,0.000,0.000
5.808,0.336,-0.487,0.080,2.306,-2.776,-0.003,5.373,-7.411,0.202,0.327,0.094,-0.109,-0.046,0.199,2.366,-0.248,-0.015,1.340,0.000,0.000,0.000,0.000,0.000,0.000
5.836,-0.219,0.921,0.325,2.335,-2.801,0.013,5.466,-7.522,0.203,-0.151,-0.059,-0.252,-0.035,0.200,2.371,-0.259,-0.011,1.315,0.000,0.000,0.000,0.000,0.000,0.000
5.863,0.047,1.435,0.862,2.347,-2.809,0.021,5.515,-7.581,0.203,0.004,-0.105,-0.182,-0.030,0.199,2.372,-0.247,-0.006,1.313,0.000,0.000,0.000,0.000,0.000,0.000
5.891,-0.986,0.746,-0.706,2.365,-2.816,0.035,5.607,-7.691,0.204,-0.233,-0.382,-0.200,-0.025,0.197,2.371,-0.233,-0.011,1.330,0.000,0.000,0.000,0.000,0.000,0.000
5.920,-1.031,0.962,0.523,2.370,-2.816,0.041,5.654,-7.747,0.205,-0.896,-0.253,-0.297,-0.025,0.194,2.369,-0.225,-0.018,1.320,0.000,0.000,0.000,0.000,0.000,0.000
5.947,-0.547,1.534,1.465,2.373,-2.813,0.048,5.704,-7.806,0.206,-0.781,0.018,-0.214,-0.028,0.190,2.367,-0.197,-0.022,1.306,0.000,0.000,0.000,0.000,0.000,0.000
5.975,0.407,0.996,0.040,2.377,-2.801,0.066,5.797,-7.916,0.208,-0.090,0.302,0.100,-0.037,0.187,2.363,-0.163,-0.013,1.309,0.000,0.000,0.000,0.000,0.000,0.000
6.006,0.533,0.339,-1.435,2.381,-2.793,0.073,5.844,-7.972,0.209,0.187,0.247,0.241,-0.043,0.187,2.361,-0.158,-0.008,1.331,0.000,0.000,0.000,0.000,0.000,0.000
6.039,0.666,-0.290,-2.490,2.389,-2.779,0.076,5.940,-8.083,0.212,0.137,0.184,0.297,-0.048,0.190,2.362,-0.172,0.006,1.300,0.000,0.000,0.000,0.000,0.000,0.000
6.065,0.678,-0.455,-2.435,2.395,-2.774,0.069,5.990,-8.141,0.214,0.115,0.103,0.318,-0.049,0.192,2.364,-0.188,0.016,1.336,0.000,0.000,0.000,0.000,0.000,0.000
6.092,0.469,-0.570,-1.595,2.408,-2.768,0.046,6.083,-8.249,0.216,0.220,-0.049,0.304,-0.048,0.196,2.369,-0.203,0.020,1.333,0.000,0.000,0.000,0.000,0.000,0.000
6.120,0.681,-0.614,-1.573,2.415,-2.768,0.031,6.134,-8.308,0.217,0.293,-0.034,0.247,-0.046,0.197,2.375,-0.208,0.018,1.282,0.000,0.000,0.000,0.000,0.000,0.000
6.146,0.673,-0.568,-1.454,2.423,-2.768,0.014,6.182,-8.363,0.218,0.198,0.062,0.224,-0.044,0.198,2.379,-0.225,0.019,1.257,0.000,0.000,0.000,0.000,0.000,0.000
6.175,0.737,-0.172,-0.262,2.440,-2.772,-0.020,6.277,-8.471,0.217,-0.046,0.211,0.171,-0.040,0.200,2.385,-0.239,0.024,1.270,0.000,0.000,0.000,0.000,0.000,0.000
6.204,0.875,0.206,0.805,2.450,-2.774,-0.036,6.326,-8.526,0.217,0.013,0.237,0.148,-0.038,0.202,2.391,-0.238,0.027,1.298,0.000,0.000,0.000,0.000,0.000,0.000
6.233,0.803,-0.050,0.682,2.472,-2.776,-0.057,6.425,-8.637,0.215,0.309,0.208,0.182,-0.036,0.207,2.397,-0.240,0.039,1.267,0.000,0.000,0.000,0.000,0.000,0.000
6.262,0.719,-0.284,0.308,2.483,-2.777,-0.064,6.474,-8.693,0.214,0.193,0.205,0.186,-0.032,0.211,2.402,-0.251,0.044,1.299,0.000,0.000,0.000,0.000,0.000,0.000
6.289,0.894,-0.401,1.754,2.508,-2.781,-0.071,6.574,-8.804,0.211,0.081,0.094,0.191,-0.029,0.214,2.406,-0.263,0.050,1.296,0.000,0.000,0.000,0.000,0.000,0.000
6.318,1.182,-0.726,1.729,2.521,-2.784,-0.070,6.624,-8.860,0.210,0.349,-0.072,0.230,-0.025,0.219,2.412,-0.266,0.049,1.299,0.000,0.000,0.000,0.000,0.000,0.000
6.346,0.382,-0.845,0.426,2.540,-2.791,-0.064,6.698,-8.941,0.208,0.452,-0.533,0.095,-0.019,0.221,2.417,-0.283,0.042,1.277,0.000,0.000,0.000,0.000,0.000,0.000
6.373,-1.608,-0.541,-0.074,2.555,-2.801,-0.060,6.777,-9.027,0.206,-0.655,-0.831,-0.369,-0.013,0.216,2.422,-0.287,0.005,1.265,0.000,0.000,0.000,0.000,0.000,0.000
6.402,-0.443,1.493,1.943,2.559,-2.807,-0.057,6.828,-9.083,0.205,-1.284,0.051,-0.481,-0.014,0.209,2.421,-0.274,-0.009,1.245,0.000,0.000,0.000,0.000,0.000,0.000
6.428,0.758,2.616,2.879,2.564,-2.808,-0.049,6.879,-9.140,0.203,-0.456,0.235,0.098,-0.020,0.205,2.420,-0.232,-0.000,1.255,0.000,0.000,0.000,0.000,0.000,0.000
6.464,0.116,1.127,1.210,2.576,-2.800,-0.024,6.982,-9.252,0.202,0.298,-0.495,0.396,-0.031,0.199,2.419,-0.201,0.011,1.258,0.000,0.000,0.000,0.000,0.000,0.000
6.495,-0.770,-0.704,-0.668,2.584,-2.787,0.003,7.085,-9.363,0.202,-0.062,-0.171,0.261,-0.035,0.192,2.423,-0.212,-0.019,1.240,0.000,0.000,0.000,0.000,0.000,0.000
6.524,-0.250,-0.492,-0.859,2.586,-2.784,0.012,7.137,-9.419,0.202,-0.263,0.401,0.018,-0.039,0.187,2.427,-0.211,-0.024,1.273,0.000,0.000,0.000,0.000,0.000,0.000
6.551,0.417,0.095,-1.470,2.590,-2.779,0.020,7.240,-9.530,0.202,-0.127,0.326,-0.032,-0.043,0.186,2.430,-0.206,-0.006,1.261,0.000,0.000,0.000,0.000,0.000,0.000
6.578,0.297,0.006,-1.617,2.593,-2.776,0.020,7.295,-9.589,0.203,0.035,0.009,-0.007,-0.047,0.187,2.432,-0.208,0.007,1.263,0.000,0.000,0.000,0.000,0.000,0.000
6.605,0.191,-0.182,-1.585,2.595,-2.775,0.016,7.344,-9.641,0.203,0.071,-0.022,0.070,-0.049,0.188,2.433,-0.208,0.008,1.286,0.000,0.000,0.000,0.000,0.000,0.000
6.633,-0.126,-0.869,-1.499,2.600,-2.774,0.001,7.448,-9.752,0.204,0.055,0.122,0.106,-0.051,0.190,2.435,-0.217,0.006,1.272,0.000,0.000,0.000,0.000,0.000,0.000
6.662,-0.194,-0.899,-1.434,2.601,-2.776,-0.009,7.500,-9.808,0.204,-0.006,0.151,0.081,-0.052,0.191,2.437,-0.227,0.003,1.281,0.000,0.000,0.000,0.000,0.000,0.000
6.689,-0.093,-0.765,-0.788,2.603,-2.785,-0.035,7.604,-9.919,0.203,0.009,0.062,0.070,-0.052,0.193,2.439,-0.226,0.002,1.277,0.000,0.000,0.000,0.000,0.000,0.000
6.718,0.176,-0.757,-0.700,2.604,-2.791,-0.048,7.656,-9.975,0.202,0.158,-0.038,0.112,-0.052,0.195,2.441,-0.221,0.001,1.326,0.000,0.000,0.000,0.000,0.000,0.000
6.749,0.426,-1.112,-0.803,2.607,-2.807,-0.075,7.760,-10.087,0.199,0.147,0.164,0.254,-0.051,0.197,2.444,-0.234,-0.003,1.335,0.000,0.000,0.000,0.000,0.000,0.000
6.780,0.501,-1.077,-0.329,2.609,-2.817,-0.088,7.812,-10.143,0.198,0.125,0.409,0.276,-0.049,0.200,2.450,-0.246,-0.001,1.292,0.000,0.000,0.000,0.000,0.000,0.000
6.809,0.588,0.183,-0.185,2.616,-2.837,-0.113,7.917,-10.256,0.194,0.253,0.304,0.128,-0.047,0.204,2.453,-0.244,0.004,1.288,0.000,0.000,0.000,0.000,0.000,0.000
6.838,0.705,0.987,-0.255,2.620,-2.844,-0.124,7.969,-10.313,0.191,0.298,0.094,0.151,-0.042,0.212,2.460,-0.252,0.018,1.336,0.000,0.000,0.000,0.000,0.000,0.000
6.868,1.087,0.892,0.064,2.626,-2.849,-0.135,8.022,-10.370,0.189,0.209,0.382,0.340,-0.039,0.215,2.463,-0.258,0.029,1.346,0.000,0.000,0.000,0.000,0.000,0.000
6.899,-0.482,-0.282,-0.546,2.639,-2.854,-0.153,8.127,-10.484,0.183,-0.496,-0.290,0.356,-0.032,0.224,2.472,-0.266,0.036,1.342,0.000,0.000,0.000,0.000,0.000,0.000
6.930,-0.898,0.754,3.569,2.644,-2.859,-0.162,8.233,-10.598,0.177,-1.131,-0.553,0.006,-0.032,0.226,2.477,-0.232,0.017,1.380,0.000,0.000,0.000,0.000,0.000,0.000
6.961,0.271,1.672,3.459,2.644,-2.859,-0.157,8.286,-10.655,0.173,-0.689,-0.016,-0.279,-0.043,0.225,2.483,-0.206,0.008,1.386,0.000,0.000,0.000,0.000,0.000,0.000
6.992,0.224,0.734,0.937,2.648,-2.850,-0.132,8.391,-10.770,0.168,-0.255,0.131,-0.027,-0.056,0.224,2.484,-0.171,0.012,1.369,0.000,0.000,0.000,0.000,0.000,0.000
7.023,-0.056,0.242,-0.134,2.650,-2.845,-0.119,8.444,-10.827,0.165,-0.239,0.097,-0.007,-0.066,0.225,2.484,-0.163,0.016,1.372,0.000,0.000,0.000,0.000,0.000,0.000
7.054,-0.093,0.253,-0.944,2.653,-2.834,-0.100,8.550,-10.940,0.161,-0.569,-0.020,-0.054,-0.078,0.225,2.484,-0.148,0.020,1.363,0.000,0.000,0.000,0.000,0.000,0.000
7.085,0.211,0.695,-0.400,2.654,-2.828,-0.095,8.604,-10.997,0.159,-0.479,0.219,0.051,-0.089,0.226,2.484,-0.136,0.019,1.354,0.000,0.000,0.000,0.000,0.000,0.000
7.117,0.548,0.359,-0.561,2.658,-2.815,-0.086,8.710,-11.110,0.155,0.006,0.204,0.224,-0.102,0.228,2.485,-0.114,0.031,1.329,0.000,0.000,0.000,0.000,0.000,0.000
7.148,0.551,-0.029,-1.246,2.662,-2.808,-0.084,8.768,-11.172,0.153,0.241,0.178,0.316,-0.110,0.231,2.487,-0.118,0.041,1.270,0.000,0.000,0.000,0.000,0.000,0.000
7.179,0.886,-0.491,-1.446,2.671,-2.798,-0.088,8.870,-11.278,0.150,0.305,0.116,0.360,-0.116,0.236,2.493,-0.134,0.052,1.259,0.000,0.000,0.000,0.000,0.000,0.000
7.209,0.577,-1.001,-1.418,2.686,-2.795,-0.104,8.977,-11.390,0.146,0.398,0.049,0.348,-0.116,0.239,2.497,-0.136,0.053,1.258,0.000,0.000,0.000,0.000,0.000,0.000
7.239,0.581,-1.105,-1.318,2.694,-2.796,-0.114,9.031,-11.446,0.144,0.197,0.045,0.093,-0.112,0.243,2.506,-0.160,0.055,1.247,0.000,0.000,0.000,0.000,0.000,0.000
7.269,1.098,0.187,0.197,2.712,-2.802,-0.137,9.139,-11.558,0.139,0.070,0.039,-0.012,-0.110,0.245,2.510,-0.173,0.058,1.229,0.000,0.000,0.000,0.000,0.000,0.000
7.296,0.979,0.377,0.318,2.722,-2.805,-0.146,9.193,-11.614,0.136,0.236,-0.119,0.026,-0.106,0.247,2.515,-0.175,0.064,1.228,0.000,0.000,0.000,0.000,0.000,0.000
7.325,0.739,0.038,0.113,2.733,-2.806,-0.154,9.248,-11.670,0.133,0.309,-0.156,0.086,-0.103,0.247,2.517,-0.176,0.060,1.215,0.000,0.000,0.000,0.000,0.000,0.000
7.351,0.779,-0.059,0.861,2.756,-2.809,-0.165,9.357,-11.782,0.127,0.161,-0.009,0.103,-0.096,0.247,2.522,-0.185,0.055,1.191,0.000,0.000,0.000,0.000,0.000,0.000
7.380,1.056,-0.086,0.699,2.768,-2.810,-0.168,9.413,-11.838,0.123,0.279,-0.022,0.143,-0.091,0.246,2.525,-0.194,0.058,1.203,0.000,0.000,0.000,0.000,0.000,0.000
7.410,0.410,-1.070,-0.736,2.798,-2.815,-0.172,9.524,-11.951,0.117,0.070,-0.753,0.064,-0.085,0.244,2.529,-0.212,0.054,1.153,0.000,0.000,0.000,0.000,0.000,0.000
7.436,-0.618,-0.437,0.800,2.811,-2.820,-0.174,9.580,-12.007,0.113,-0.847,-1.404,-0.243,-0.082,0.239,2.530,-0.209,0.036,1.164,0.000,0.000,0.000,0.000,0.000,0.000
7.464,-0.164,2.023,5.362,2.823,-2.822,-0.170,9.636,-12.064,0.110,-1.235,-0.602,-0.540,-0.086,0.226,2.530,-0.179,0.007,1.163,0.000,0.000,0.000,0.000,0.000,0.000
7.493,1.881,2.152,3.419,2.846,-2.812,-0.137,9.750,-12.176,0.104,0.050,-0.023,0.277,-0.097,0.212,2.527,-0.128,-0.004,1.126,0.000,0.000,0.000,0.000,0.000,0.000
7.525,0.839,0.415,1.137,2.861,-2.802,-0.111,9.812,-12.238,0.101,0.584,-0.530,0.628,-0.104,0.201,2.527,-0.124,-0.008,1.091,0.000,0.000,0.000,0.000,0.000,0.000
7.556,-0.466,-1.123,-0.606,2.885,-2.788,-0.073,9.922,-12.344,0.097,-0.083,-0.225,0.413,-0.106,0.189,2.532,-0.150,-0.032,1.148,0.000,0.000,0.000,0.000,0.000,0.000
7.589,0.693,-0.480,-0.634,2.905,-2.784,-0.045,10.037,-12.456,0.095,-0.287,0.246,0.165,-0.108,0.179,2.538,-0.154,-0.039,1.164,0.000,0.000,0.000,0.000,0.000,0.000
7.622,1.036,-0.394,-1.252,2.915,-2.783,-0.035,10.096,-12.512,0.094,0.040,0.288,0.095,-0.112,0.172,2.547,-0.153,-0.024,1.142,0.000,0.000,0.000,0.000,0.000,0.000
7.654,0.668,-0.428,-2.260,2.939,-2.785,-0.028,10.213,-12.623,0.093,0.259,0.235,0.205,-0.114,0.172,2.552,-0.164,-0.006,1.117,0.000,0.000,0.000,0.000,0.000,0.000
7.685,0.577,-0.657,-2.382,2.951,-2.787,-0.032,10.272,-12.679,0.092,0.318,0.071,0.266,-0.113,0.173,2.557,-0.169,-0.002,1.082,0.000,0.000,0.000,0.000,0.000,0.000
7.718,-0.066,-0.992,-1.413,2.974,-2.795,-0.049,10.390,-12.790,0.091,0.447,-0.161,0.288,-0.110,0.174,2.564,-0.193,0.001,1.062,0.000,0.000,0.000,0.000,0.000,0.000
7.749,-0.577,-1.136,-1.080,2.985,-2.802,-0.063,10.459,-12.855,0.090,0.348,-0.140,0.203,-0.105,0.174,2.570,-0.209,-0.012,1.076,0.000,0.000,0.000,0.000,0.000,0.000
7.779,-0.579,-0.507,0.086,2.997,-2.817,-0.085,10.569,-12.959,0.087,0.145,0.308,-0.001,-0.096,0.173,2.578,-0.223,-0.025,1.071,0.000,0.000,0.000,0.000,0.000,0.000
7.809,0.017,-0.043,0.313,3.001,-2.825,-0.095,10.629,-13.015,0.085,0.246,0.425,0.027,-0.092,0.174,2.581,-0.226,-0.021,1.094,0.000,0.000,0.000,0.000,0.000,0.000
7.840,0.517,0.100,0.038,3.008,-2.840,-0.112,10.753,-13.131,0.081,0.343,0.286,0.161,-0.083,0.180,2.586,-0.237,-0.003,1.118,0.000,0.000,0.000,0.000,0.000,0.000
7.870,1.281,0.585,2.037,3.020,-2.850,-0.120,10.870,-13.242,0.076,0.271,0.192,0.236,-0.077,0.183,2.589,-0.250,0.012,1.107,0.000,0.000,0.000,0.000,0.000,0.000
7.900,1.454,0.322,1.730,3.028,-2.852,-0.119,10.931,-13.299,0.074,0.782,0.403,0.534,-0.066,0.192,2.596,-0.257,0.023,1.112,0.000,0.000,0.000,0.000,0.000,0.000
7.930,-1.132,-0.601,-0.527,3.045,-2.857,-0.114,11.052,-13.413,0.069,0.670,-0.138,0.481,-0.057,0.196,2.602,-0.288,0.018,1.115,0.000,0.000,0.000,0.000,0.000,0.000
7.960,-1.691,0.581,1.344,3.049,-2.860,-0.112,11.113,-13.470,0.067,-0.834,-0.590,-0.321,-0.043,0.199,2.613,-0.295,0.006,1.115,0.000,0.000,0.000,0.000,0.000,0.000
7.994,0.192,2.749,3.699,3.053,-2.855,-0.093,11.235,-13.585,0.063,-0.435,-0.139,-0.070,-0.040,0.194,2.617,-0.252,-0.019,1.115,0.000,0.000,0.000,0.000,0.000,0.000
8.028,-0.230,1.532,1.563,3.054,-2.846,-0.075,11.296,-13.642,0.061,-0.133,-0.093,0.059,-0.041,0.190,2.619,-0.229,-0.019,1.091,0.000,0.000,0.000,0.000,0.000,0.000
8.062,0.207,0.985,-0.945,3.055,-2.824,-0.042,11.418,-13.755,0.059,-0.310,0.100,-0.022,-0.045,0.185,2.622,-0.207,-0.018,1.085,0.000,0.000,0.000,0.000,0.000,0.000
8.092,0.383,0.559,-1.703,3.057,-2.799,-0.025,11.540,-13.868,0.057,-0.447,0.103,0.045,-0.050,0.183,2.623,-0.186,-0.009,1.105,0.000,0.000,0.000,0.000,0.000,0.000
8.118,0.296,0.409,-1.110,3.060,-2.786,-0.023,11.602,-13.923,0.057,-0.441,0.084,0.098,-0.055,0.183,2.624,-0.170,-0.010,1.137,0.000,0.000,0.000,0.000,0.000,0.000
8.143,0.301,0.329,-0.957,3.062,-2.775,-0.023,11.663,-13.979,0.056,-0.038,0.035,0.180,-0.062,0.183,2.626,-0.161,-0.003,1.143,0.000,0.000,0.000,0.000,0.000,0.000
8.170,0.323,-0.175,-1.997,3.069,-2.754,-0.031,11.785,-14.090,0.055,0.345,0.012,0.288,-0.067,0.184,2.629,-0.160,0.000,1.168,0.000,0.000,0.000,0.000,0.000,0.000
8.195,0.356,-0.507,-2.506,3.072,-2.745,-0.040,11.847,-14.145,0.055,0.437,0.015,0.326,-0.068,0.184,2.632,-0.163,-0.002,1.163,0.000,0.000,0.000,0.000,0.000,0.000
8.223,0.285,-0.616,-2.496,3.076,-2.739,-0.054,11.908,-14.199,0.054,0.290,-0.026,0.286,-0.067,0.184,2.637,-0.183,0.002,1.136,0.000,0.000,0.000,0.000,0.000,0.000
8.248,0.286,-0.532,-1.665,3.081,-2.734,-0.071,11.973,-14.257,0.052,0.187,-0.064,0.243,-0.065,0.184,2.641,-0.186,-0.001,1.158,0.000,0.000,0.000,0.000,0.000,0.000
8.276,0.249,-0.138,-0.115,3.089,-2.728,-0.103,12.093,-14.363,0.049,0.352,-0.021,0.213,-0.061,0.184,2.648,-0.194,-0.006,1.163,0.000,0.000,0.000,0.000,0.000,0.000
8.301,0.283,-0.263,-0.502,3.094,-2.726,-0.118,12.155,-14.418,0.047,0.250,-0.009,0.165,-0.056,0.183,2.654,-0.205,-0.005,1.173,0.000,0.000,0.000,0.000,0.000,0.000
8.329,0.426,-0.471,-0.586,3.099,-2.725,-0.134,12.220,-14.475,0.044,0.131,0.053,0.137,-0.053,0.183,2.657,-0.209,-0.008,1.167,0.000,0.000,0.000,0.000,0.000,0.000
8.353,0.863,-0.130,1.318,3.110,-2.725,-0.157,12.341,-14.581,0.039,0.023,0.176,0.126,-0.047,0.184,2.664,-0.213,-0.002,1.222,0.000,0.000,0.000,0.000,0.000,0.000
8.380,0.762,-0.347,2.053,3.117,-2.726,-0.163,12.403,-14.636,0.035,0.279,-0.140,0.139,-0.043,0.185,2.668,-0.216,0.001,1.190,0.000,0.000,0.000,0.000,0.000,0.000
8.407,0.808,-0.676,2.167,3.126,-2.727,-0.163,12.469,-14.693,0.032,0.512,-0.165,0.126,-0.040,0.185,2.672,-0.217,-0.001,1.181,0.000,0.000,0.000,0.000,0.000,0.000
8.435,-0.236,-0.783,-0.194,3.143,-2.734,-0.157,12.591,-14.800,0.026,0.558,-0.351,0.017,-0.032,0.185,2.676,-0.241,-0.008,1.221,0.000,0.000,0.000,0.000,0.000,0.000
8.463,-1.304,-0.967,-0.546,3.150,-2.740,-0.155,12.661,-14.860,0.022,-0.501,-0.887,-0.392,-0.024,0.181,2.679,-0.255,-0.027,1.231,0.000,0.000,0.000,0.000,0.000,0.000
8.492,0.680,1.833,3.713,3.156,-2.748,-0.145,12.780,-14.964,0.016,-1.332,-0.005,-0.593,-0.023,0.171,2.677,-0.223,-0.050,1.237,0.000,0.000,0.000,0.000,0.000,0.000
8.518,1.408,2.246,4.169,3.160,-2.747,-0.131,12.844,-15.019,0.014,-0.827,0.233,-0.257,-0.029,0.167,2.674,-0.197,-0.047,1.224,0.000,0.000,0.000,0.000,0.000,0.000
8.546,0.584,1.248,2.838,3.166,-2.742,-0.110,12.907,-15.074,0.011,0.215,-0.247,0.228,-0.038,0.162,2.670,-0.172,-0.038,1.208,0.000,0.000,0.000,0.000,0.000,0.000
8.573,-0.876,-0.398,-0.646,3.176,-2.731,-0.069,13.034,-15.184,0.008,-0.099,-0.315,0.148,-0.044,0.156,2.668,-0.175,-0.056,1.225,0.000,0.000,0.000,0.000,0.000,0.000
8.600,-0.563,-0.586,-0.518,3.178,-2.728,-0.053,13.097,-15.238,0.006,-0.312,0.408,-0.017,-0.049,0.151,2.668,-0.172,-0.063,1.253,0.000,0.000,0.000,0.000,0.000,0.000
8.629,0.611,-0.461,-1.399,3.181,-2.724,-0.029,13.224,-15.347,0.005,-0.106,0.596,-0.049,-0.053,0.150,2.668,-0.164,-0.049,1.221,0.000,0.000,0.000,0.000,0.000,0.000
8.658,0.701,-0.407,-2.237,3.184,-2.724,-0.023,13.288,-15.402,0.004,0.175,0.463,-0.092,-0.058,0.152,2.667,-0.175,-0.030,1.202,0.000,0.000,0.000,0.000,0.000,0.000
8.685,0.786,-0.516,-2.601,3.188,-2.725,-0.023,13.352,-15.456,0.004,0.215,0.313,0.000,-0.060,0.157,2.666,-0.177,-0.021,1.204,0.000,0.000,0.000,0.000,0.000,0.000
8.712,0.059,-0.902,-2.336,3.198,-2.730,-0.036,13.479,-15.565,0.003,0.211,0.310,0.076,-0.059,0.164,2.666,-0.197,-0.004,1.202,0.000,0.000,0.000,0.000,0.000,0.000
8.737,0.088,-0.804,-1.973,3.202,-2.734,-0.048,13.543,-15.620,0.002,0.166,0.265,0.042,-0.058,0.169,2.666,-0.213,0.003,1.188,0.000,0.000,0.000,0.000,0.000,0.000
8.764,0.192,-0.608,-1.298,3.206,-2.740,-0.063,13.608,-15.675,0.001,0.140,0.121,0.054,-0.056,0.176,2.666,-0.216,0.008,1.203,0.000,0.000,0.000,0.000,0.000,0.000
8.788,0.210,-0.467,-0.663,3.211,-2.747,-0.079,13.678,-15.735,-0.001,0.187,0.117,0.116,-0.054,0.180,2.666,-0.225,0.012,1.202,0.000,0.000,0.000,0.000,0.000,0.000
8.814,0.026,-0.719,-0.294,3.219,-2.759,-0.106,13.800,-15.840,-0.004,0.241,0.186,0.209,-0.050,0.186,2.668,-0.239,0.015,1.172,0.000,0.000,0.000,0.000,0.000,0.000
8.840,0.015,-0.822,-0.019,3.222,-2.767,-0.119,13.865,-15.895,-0.007,0.139,0.205,0.236,-0.046,0.191,2.670,-0.244,0.017,1.186,0.000,0.000,0.000,0.000,0.000,0.000
8.865,0.133,-0.813,0.504,3.226,-2.776,-0.130,13.929,-15.950,-0.009,0.119,0.259,0.266,-0.043,0.195,2.673,-0.253,0.017,1.204,0.000,0.000,0.000,0.000,0.000,0.000
8.890,0.456,-1.002,1.016,3.233,-2.796,-0.144,14.058,-16.062,-0.014,0.304,0.439,0.368,-0.038,0.202,2.678,-0.265,0.024,1.211,0.000,0.000,0.000,0.000,0.000,0.000
8.916,0.630,-1.231,0.939,3.237,-2.808,-0.147,14.123,-16.118,-0.017,0.406,0.365,0.396,-0.034,0.208,2.683,-0.271,0.030,1.197,0.000,0.000,0.000,0.000,0.000,0.000
8.943,0.906,-1.318,1.116,3.243,-2.821,-0.148,14.188,-16.174,-0.020,0.516,0.220,0.345,-0.028,0.216,2.690,-0.289,0.035,1.191,0.000,0.000,0.000,0.000,0.000,0.000
8.969,-1.339,-0.464,0.366,3.254,-2.849,-0.145,14.318,-16.287,-0.026,0.425,-0.083,0.250,-0.022,0.221,2.695,-0.299,0.038,1.214,0.000,0.000,0.000,0.000,0.000,0.000
8.994,-1.493,0.501,2.032,3.256,-2.862,-0.141,14.383,-16.345,-0.029,-0.402,-0.662,-0.181,-0.013,0.225,2.703,-0.310,0.018,1.253,0.000,0.000,0.000,0.000,0.000,0.000
9.021,-0.169,1.862,3.638,3.255,-2.871,-0.132,14.448,-16.402,-0.032,-0.550,-0.089,-0.380,-0.010,0.224,2.706,-0.284,0.004,1.252,0.000,0.000,0.000,0.000,0.000,0.000
9.048,1.001,2.509,3.204,3.256,-2.875,-0.116,14.513,-16.459,-0.034,-0.057,0.280,-0.131,-0.011,0.223,2.706,-0.269,-0.002,1.251,0.000,0.000,0.000,0.000,0.000,0.000
9.072,0.308,1.392,-0.010,3.262,-2.870,-0.080,14.643,-16.574,-0.038,0.204,-0.158,0.009,-0.012,0.223,2.706,-0.253,0.015,1.265,0.000,0.000,0.000,0.000,0.000,0.000
9.096,0.244,1.367,-0.389,3.266,-2.863,-0.064,14.709,-16.632,-0.040,-0.068,-0.320,-0.038,-0.011,0.222,2.706,-0.248,0.018,1.265,0.000,0.000,0.000,0.000,0.000,0.000
9.121,0.390,1.380,0.050,3.270,-2.855,-0.050,14.774,-16.689,-0.041,-0.265,-0.045,0.050,-0.012,0.220,2.706,-0.246,0.012,1.260,0.000,0.000,0.000,0.000,0.000,0.000
9.146,0.515,1.036,-0.355,3.274,-2.845,-0.038,14.840,-16.746,-0.042,-0.215,0.073,0.114,-0.013,0.218,2.706,-0.235,0.017,1.270,0.000,0.000,0.000,0.000,0.000,0.000
9.171,0.479,0.609,-1.067,3.285,-2.823,-0.021,14.971,-16.859,-0.043,-0.111,0.077,0.173,-0.016,0.217,2.707,-0.225,0.025,1.271,0.000,0.000,0.000,0.000,0.000,0.000
9.202,0.508,0.423,-1.510,3.291,-2.811,-0.017,15.040,-16.918,-0.043,0.004,0.097,0.253,-0.019,0.217,2.709,-0.223,0.026,1.262,0.000,0.000,0.000,0.000,0.000,0.000
9.235,0.291,-0.074,-1.845,3.304,-2.791,-0.019,15.168,-17.027,-0.044,0.056,0.087,0.291,-0.021,0.217,2.713,-0.226,0.035,1.272,0.000,0.000,0.000,0.000,0.000,0.000
9.265,-0.008,-0.350,-1.756,3.310,-2.782,-0.026,15.235,-17.083,-0.044,0.090,0.006,0.224,-0.022,0.218,2.718,-0.235,0.038,1.277,0.000,0.000,0.000,0.000,0.000,0.000
9.297,0.452,-0.407,-1.268,3.322,-2.770,-0.046,15.367,-17.194,-0.046,0.115,-0.033,0.194,-0.022,0.219,2.723,-0.246,0.042,1.264,0.000,0.000,0.000,0.000,0.000,0.000
9.327,0.529,-0.519,-0.906,3.328,-2.766,-0.058,15.434,-17.250,-0.047,0.159,-0.031,0.216,-0.022,0.219,2.727,-0.248,0.040,1.272,0.000,0.000,0.000,0.000,0.000,0.000
9.358,0.339,-0.591,-0.325,3.341,-2.762,-0.083,15.567,-17.360,-0.050,0.269,0.020,0.198,-0.018,0.220,2.736,-0.263,0.040,1.322,0.000,0.000,0.000,0.000,0.000,0.000
9.388,0.319,-0.555,-0.016,3.347,-2.762,-0.094,15.634,-17.415,-0.051,0.302,0.012,0.176,-0.015,0.220,2.740,-0.274,0.040,1.322,0.000,0.000,0.000,0.000,0.000,0.000
9.418,0.501,-0.350,0.477,3.360,-2.765,-0.114,15.768,-17.526,-0.056,0.335,-0.043,0.150,-0.010,0.220,2.746,-0.289,0.040,1.317,0.000,0.000,0.000,0.000,0.000,0.000
9.448,0.427,-0.270,1.093,3.368,-2.767,-0.120,15.839,-17.584,-0.058,0.354,-0.153,0.162,-0.004,0.220,2.751,-0.295,0.038,1.328,0.000,0.000,0.000,0.000,0.000,0.000
9.476,0.753,-0.590,1.241,3.382,-2.773,-0.124,15.970,-17.692,-0.063,0.397,-0.154,0.153,0.005,0.219,2.757,-0.310,0.031,1.338,0.000,0.000,0.000,0.000,0.000,0.000
9.510,0.917,-0.622,0.159,3.402,-2.783,-0.119,16.106,-17.803,-0.068,0.428,-0.282,0.094,0.013,0.217,2.762,-0.334,0.028,1.360,0.000,0.000,0.000,0.000,0.000,0.000
9.540,-0.522,-0.548,-0.096,3.411,-2.789,-0.116,16.174,-17.859,-0.070,-0.679,-1.002,-0.270,0.024,0.209,2.767,-0.343,0.013,1.372,0.000,0.000,0.000,0.000,0.000,0.000
9.566,-0.492,1.046,2.465,3.419,-2.794,-0.111,16.242,-17.915,-0.072,-1.096,-0.496,-0.375,0.025,0.201,2.767,-0.338,-0.006,1.350,0.000,0.000,0.000,0.000,0.000,0.000
9.590,1.560,1.906,3.304,3.436,-2.794,-0.084,16.380,-18.026,-0.076,-0.398,0.186,0.046,0.019,0.189,2.766,-0.283,-0.017,1.360,0.000,0.000,0.000,0.000,0.000,0.000
9.615,0.601,1.011,1.984,3.446,-2.789,-0.063,16.448,-18.082,-0.078,0.224,-0.093,0.357,0.014,0.184,2.766,-0.266,-0.011,1.368,0.000,0.000,0.000,0.000,0.000,0.000
9.641,-0.558,0.314,0.446,3.456,-2.783,-0.042,16.517,-18.138,-0.079,0.437,-0.633,0.345,0.011,0.177,2.768,-0.271,-0.015,1.380,0.000,0.000,0.000,0.000,0.000,0.000
9.666,-1.246,0.024,-0.120,3.463,-2.778,-0.023,16.587,-18.194,-0.079,0.209,-0.400,0.247,0.011,0.170,2.770,-0.277,-0.037,1.398,0.000,0.000,0.000,0.000,0.000,0.000
9.692,-0.954,-0.012,-0.853,3.467,-2.768,0.009,16.725,-18.305,-0.080,0.023,0.184,0.029,0.013,0.161,2.775,-0.284,-0.061,1.407,0.000,0.000,0.000,0.000,0.000,0.000
9.716,-0.481,0.111,-1.589,3.467,-2.764,0.019,16.798,-18.363,-0.079,0.017,0.378,-0.115,0.014,0.157,2.777,-0.286,-0.057,1.408,0.000,0.000,0.000,0.000,0.000,0.000
9.744,0.038,0.347,-2.206,3.466,-2.760,0.025,16.867,-18.418,-0.079,-0.015,0.336,-0.265,0.015,0.155,2.779,-0.291,-0.045,1.403,0.000,0.000,0.000,0.000,0.000,0.000
9.769,0.269,0.673,-2.194,3.465,-2.751,0.021,17.002,-18.525,-0.078,-0.057,0.227,-0.257,0.015,0.155,2.778,-0.293,-0.021,1.393,0.000,0.000,0.000,0.000,0.000,0.000
9.793,0.056,0.554,-1.871,3.465,-2.745,0.013,17.072,-18.580,-0.078,-0.086,0.073,-0.123,0.015,0.157,2.776,-0.293,-0.017,1.395,0.000,0.000,0.000,0.000,0.000,0.000
9.819,-0.251,0.292,-1.734,3.466,-2.738,0.001,17.145,-18.638,-0.077,-0.106,0.116,-0.046,0.015,0.159,2.775,-0.293,-0.013,1.390,0.000,0.000,0.000,0.000,0.000,0.000
9.845,-0.079,0.177,-1.790,3.465,-2.732,-0.012,17.214,-18.693,-0.078,-0.169,0.198,-0.006,0.014,0.161,2.773,-0.292,-0.010,1.385,0.000,0.000,0.000,0.000,0.000,0.000
9.870,0.225,-0.041,-1.235,3.465,-2.721,-0.043,17.349,-18.799,-0.079,-0.208,0.081,0.094,0.011,0.164,2.771,-0.291,0.001,1.371,0.000,0.000,0.000,0.000,0.000,0.000
9.895,0.162,-0.128,-0.588,3.466,-2.716,-0.061,17.422,-18.856,-0.080,-0.230,0.023,0.159,0.009,0.167,2.771,-0.290,0.004,1.365,0.000,0.000,0.000,0.000,0.000,0.000
9.921,0.349,-0.219,-0.117,3.467,-2.713,-0.076,17.488,-18.908,-0.081,-0.142,0.103,0.268,0.005,0.169,2.772,-0.286,0.003,1.374,0.000,0.000,0.000,0.000,0.000,0.000
9.948,0.538,-0.393,-0.163,3.469,-2.710,-0.092,17.560,-18.965,-0.083,-0.109,0.224,0.393,0.002,0.171,2.774,-0.288,0.006,1.366,0.000,0.000,0.000,0.000,0.000,0.000
9.973,0.732,-1.040,0.368,3.475,-2.709,-0.116,17.696,-19.070,-0.087,-0.066,0.385,0.577,-0.002,0.175,2.779,-0.292,0.013,1.392,0.000,0.000,0.000,0.000,0.000,0.000
10.000,0.574,-1.361,0.564,3.480,-2.711,-0.126,17.765,-19.124,-0.089,0.094,0.313,0.657,-0.004,0.181,2.787,-0.291,0.017,1.424,0.000,0.000,0.000,0.000,0.000,0.000
10.026,0.342,-1.328,1.225,3.485,-2.717,-0.133,17.835,-19.179,-0.092,0.189,0.164,0.600,-0.006,0.185,2.795,-0.300,0.018,1.418,0.000,0.000,0.000,0.000,0.000,0.000
10.051,0.421,-0.462,2.550,3.496,-2.731,-0.135,17.975,-19.288,-0.097,0.340,0.195,0.501,-0.005,0.192,2.808,-0.307,0.016,1.428,0.000,0.000,0.000,0.000,0.000,0.000
10.075,0.748,-0.088,2.206,3.503,-2.739,-0.128,18.045,-19.342,-0.100,0.487,0.486,0.491,-0.003,0.196,2.816,-0.314,0.017,1.450,0.000,0.000,0.000,0.000,0.000,0.000
10.101,0.622,0.312,0.654,3.509,-2.746,-0.120,18.115,-19.397,-0.102,0.478,0.452,0.553,0.002,0.204,2.829,-0.320,0.027,1.494,0.000,0.000,0.000,0.000,0.000,0.000
10.126,-0.356,0.393,-0.042,3.516,-2.751,-0.111,18.189,-19.455,-0.105,-0.128,-0.099,0.357,0.007,0.210,2.839,-0.332,0.035,1.479,0.000,0.000,0.000,0.000,0.000,0.000
10.150,-0.080,1.317,1.387,3.525,-2.756,-0.094,18.326,-19.562,-0.109,-0.448,-0.158,0.127,0.011,0.216,2.852,-0.325,0.024,1.486,0.000,0.000,0.000,0.000,0.000,0.000
10.179,0.309,1.496,1.507,3.528,-2.754,-0.083,18.396,-19.617,-0.111,-0.387,-0.261,0.200,0.010,0.219,2.861,-0.302,0.021,1.499,0.000,0.000,0.000,0.000,0.000,0.000
10.209,-0.163,1.321,1.494,3.531,-2.750,-0.070,18.467,-19.672,-0.112,-0.387,-0.374,0.203,0.008,0.219,2.868,-0.294,0.016,1.484,0.000,0.000,0.000,0.000,0.000,0.000
10.239,-0.433,0.802,1.311,3.536,-2.736,-0.040,18.608,-19.782,-0.114,-0.338,-0.216,0.208,0.001,0.216,2.879,-0.267,-0.003,1.500,0.000,0.000,0.000,0.000,0.000,0.000
10.268,-0.476,0.332,0.569,3.536,-2.728,-0.023,18.683,-19.840,-0.115,-0.307,0.057,0.197,-0.003,0.213,2.884,-0.255,-0.014,1.492,0.000,0.000,0.000,0.000,0.000,0.000
10.298,-0.537,-0.173,-0.963,3.535,-2.714,0.006,18.824,-19.948,-0.115,-0.243,0.247,0.089,-0.013,0.211,2.894,-0.245,-0.017,1.515,0.000,0.000,0.000,0.000,0.000,0.000
10.325,-0.434,-0.355,-1.758,3.533,-2.709,0.013,18.891,-20.000,-0.115,-0.198,0.246,0.049,-0.016,0.211,2.896,-0.239,-0.013,1.527,0.000,0.000,0.000,0.000,0.000,0.000
10.351,0.001,-0.476,-2.660,3.527,-2.701,0.016,19.032,-20.108,-0.115,-0.154,0.162,-0.017,-0.025,0.213,2.903,-0.243,-0.002,1.508,0.000,0.000,0.000,0.000,0.000,0.000
10.378,-0.069,-0.357,-2.456,3.525,-2.700,0.009,19.103,-20.162,-0.114,-0.130,-0.002,-0.024,-0.031,0.215,2.906,-0.251,0.005,1.491,0.000,0.000,0.000,0.000,0.000,0.000
10.405,0.206,-0.390,-2.115,3.523,-2.699,-0.002,19.173,-20.216,-0.114,-0.092,-0.081,-0.007,-0.035,0.217,2.907,-0.247,0.006,1.499,0.000,0.000,0.000,0.000,0.000,0.000
10.435,0.338,-0.343,-1.421,3.520,-2.700,-0.031,19.314,-20.324,-0.115,-0.119,-0.048,0.009,-0.040,0.218,2.909,-0.252,0.008,1.490,0.000,0.000,0.000,0.000,0.000,0.000
10.462,0.450,-0.194,-0.768,3.521,-2.701,-0.047,19.385,-20.378,-0.116,-0.153,0.006,0.040,-0.044,0.218,2.911,-0.254,0.011,1.495,0.000,0.000,0.000,0.000,0.000,0.000
10.489,0.815,-0.215,0.529,3.524,-2.704,-0.076,19.526,-20.486,-0.118,-0.106,0.024,0.039,-0.047,0.218,2.911,-0.250,0.015,1.495,0.000,0.000,0.000,0.000,0.000,0.000
10.515,0.964,-0.308,0.507,3.528,-2.706,-0.087,19.596,-20.540,-0.120,0.057,0.007,0.086,-0.051,0.219,2.913,-0.249,0.015,1.499,0.000,0.000,0.000,0.000,0.000,0.000
10.542,0.786,-0.455,0.653,3.534,-2.709,-0.096,19.667,-20.594,-0.122,0.145,-0.125,0.173,-0.054,0.219,2.915,-0.254,0.018,1.464,0.000,0.000,0.000,0.000,0.000,0.000
10.569,0.493,-0.936,1.105,3.547,-2.717,-0.105,19.808,-20.703,-0.126,0.186,-0.175,0.189,-0.054,0.219,2.916,-0.266,0.012,1.457,0.000,0.000,0.000,0.000,0.000,0.000
10.595,0.370,-0.881,1.283,3.554,-2.724,-0.106,19.879,-20.757,-0.128,0.165,0.145,0.087,-0.054,0.217,2.920,-0.269,0.008,1.501,0.000,0.000,0.000,0.000,0.000,0.000
10.627,1.085,-0.939,1.079,3.561,-2.731,-0.105,19.950,-20.812,-0.130,0.275,0.315,0.066,-0.051,0.218,2.923,-0.280,0.014,1.474,0.000,0.000,0.000,0.000,0.000,0.000
10.655,-0.552,-0.446,0.617,3.576,-2.749,-0.098,20.093,-20.921,-0.134,-0.502,-0.544,-0.359,-0.049,0.219,2.925,-0.289,0.018,1.450,0.000,0.000,0.000,0.000,0.000,0.000
10.681,0.424,1.774,2.965,3.582,-2.755,-0.092,20.165,-20.976,-0.136,-1.333,-0.379,-0.735,-0.052,0.216,2.923,-0.279,0.009,1.457,0.000,0.000,0.000,0.000,0.000,0.000
10.706,1.394,2.854,4.391,3.589,-2.757,-0.078,20.236,-21.032,-0.138,-0.936,0.097,-0.476,-0.059,0.213,2.919,-0.233,0.005,1.446,0.000,0.000,0.000,0.000,0.000,0.000
10.732,0.353,1.296,0.924,3.609,-2.746,-0.037,20.380,-21.142,-0.140,0.197,-0.037,0.214,-0.073,0.211,2.912,-0.188,0.014,1.420,0.000,0.000,0.000,0.000,0.000,0.000
10.757,-0.551,0.302,-1.036,3.619,-2.738,-0.016,20.456,-21.199,-0.140,-0.062,-0.303,0.104,-0.079,0.209,2.909,-0.191,0.012,1.427,0.000,0.000,0.000,0.000,0.000,0.000
10.783,-0.749,0.202,-0.909,3.626,-2.730,-0.001,20.525,-21.251,-0.141,-0.451,-0.222,-0.010,-0.087,0.206,2.906,-0.187,0.002,1.434,0.000,0.000,0.000,0.000,0.000,0.000
10.809,0.103,0.128,0.078,3.636,-2.715,0.026,20.670,-21.360,-0.140,-0.242,0.028,0.004,-0.094,0.203,2.905,-0.170,-0.005,1.429,0.000,0.000,0.000,0.000,0.000,0.000
10.834,0.261,-0.352,-1.350,3.641,-2.709,0.036,20.743,-21.414,-0.139,0.247,0.266,0.073,-0.103,0.200,2.903,-0.168,-0.003,1.430,0.000,0.000,0.000,0.000,0.000,0.000
10.859,0.131,-0.626,-2.086,3.646,-2.704,0.042,20.816,-21.468,-0.139,0.391,0.149,0.106,-0.106,0.200,2.903,-0.182,0.006,1.421,0.000,0.000,0.000,0.000,0.000,0.000
10.885,0.105,-0.800,-2.293,3.651,-2.701,0.043,20.889,-21.523,-0.138,0.411,0.027,0.103,-0.106,0.201,2.903,-0.188,0.009,1.422,0.000,0.000,0.000,0.000,0.000,0.000
10.909,-0.071,-0.710,-2.052,3.659,-2.700,0.033,21.035,-21.631,-0.136,0.384,-0.017,0.123,-0.105,0.201,2.904,-0.209,0.016,1.403,0.000,0.000,0.000,0.000,0.000,0.000
10.933,-0.040,-0.501,-1.645,3.663,-2.702,0.022,21.108,-21.685,-0.136,0.255,-0.093,0.127,-0.101,0.202,2.905,-0.230,0.015,1.394,0.000,0.000,0.000,0.000,0.000,0.000
10.960,-0.299,-0.285,-1.000,3.666,-2.704,0.010,21.182,-21.739,-0.135,0.187,-0.226,0.120,-0.096,0.201,2.907,-0.234,0.013,1.402,0.000,0.000,0.000,0.000,0.000,0.000
10.987,-0.320,-0.150,-0.672,3.668,-2.707,-0.002,21.255,-21.793,-0.135,0.106,-0.330,0.076,-0.093,0.200,2.909,-0.239,0.007,1.415,0.000,0.000,0.000,0.000,0.000,0.000
11.012,-0.237,0.277,0.910,3.670,-2.711,-0.025,21.402,-21.901,-0.136,-0.083,-0.402,0.073,-0.088,0.195,2.911,-0.238,-0.009,1.402,0.000,0.000,0.000,0.000,0.000,0.000
11.039,0.148,0.638,2.057,3.671,-2.712,-0.031,21.475,-21.955,-0.136,0.209,0.017,0.287,-0.085,0.190,2.914,-0.237,-0.018,1.403,0.000,0.000,0.000,0.000,0.000,0.000
11.063,0.732,0.275,2.188,3.672,-2.712,-0.033,21.549,-22.010,-0.137,0.464,0.192,0.484,-0.083,0.187,2.916,-0.233,-0.021,1.404,0.000,0.000,0.000,0.000,0.000,0.000
11.088,0.393,0.038,1.329,3.674,-2.711,-0.030,21.629,-22.069,-0.138,0.602,0.402,0.612,-0.079,0.185,2.920,-0.239,-0.021,1.396,0.000,0.000,0.000,0.000,0.000,0.000
11.113,-1.092,0.450,0.067,3.679,-2.711,-0.022,21.769,-22.172,-0.139,0.645,0.556,0.568,-0.070,0.187,2.930,-0.268,-0.008,1.390,0.000,0.000,0.000,0.000,0.000,0.000
11.139,-0.047,-0.290,-0.402,3.679,-2.712,-0.018,21.843,-22.226,-0.139,0.140,-0.054,-0.012,-0.060,0.192,2.939,-0.284,-0.000,1.397,0.000,0.000,0.000,0.000,0.000,0.000
11.164,1.020,-0.640,1.106,3.681,-2.713,-0.014,21.916,-22.281,-0.139,-0.403,-0.753,-0.070,-0.054,0.194,2.944,-0.289,0.001,1.407,0.000,0.000,0.000,0.000,0.000,0.000
11.189,0.872,2.383,4.369,3.685,-2.707,0.008,22.064,-22.389,-0.140,-0.722,-0.804,-0.253,-0.051,0.193,2.948,-0.251,-0.025,1.418,0.000,0.000,0.000,0.000,0.000,0.000
11.215,1.442,2.243,3.033,3.689,-2.697,0.029,22.137,-22.443,-0.139,-0.411,-0.133,-0.169,-0.052,0.187,2.951,-0.221,-0.027,1.410,0.000,0.000,0.000,0.000,0.000,0.000
11.240,1.479,1.779,1.639,3.695,-2.685,0.052,22.211,-22.497,-0.138,-0.353,0.004,0.060,-0.056,0.182,2.952,-0.211,-0.029,1.417,0.000,0.000,0.000,0.000,0.000,0.000
11.263,1.008,1.471,1.091,3.704,-2.670,0.075,22.285,-22.551,-0.137,-0.214,-0.043,0.120,-0.059,0.179,2.953,-0.193,-0.022,1.427,0.000,0.000,0.000,0.000,0.000,0.000
11.286,0.972,1.161,0.052,3.714,-2.654,0.098,22.359,-22.604,-0.135,0.021,-0.043,0.164,-0.063,0.177,2.954,-0.185,-0.023,1.412,0.000,0.000,0.000,0.000,0.000,0.000
11.312,0.415,0.451,-2.275,3.735,-2.623,0.130,22.508,-22.709,-0.131,0.057,-0.099,0.236,-0.067,0.174,2.957,-0.180,-0.016,1.408,0.000,0.000,0.000,0.000,0.000,0.000
11.341,0.514,0.222,-2.610,3.751,-2.602,0.141,22.617,-22.785,-0.127,-0.232,-0.187,0.291,-0.070,0.171,2.960,-0.183,-0.010,1.421,0.000,0.000,0.000,0.000,0.000,0.000
11.370,0.282,0.257,-1.109,3.767,-2.581,0.141,22.733,-22.865,-0.123,0.004,-0.035,0.472,-0.074,0.167,2.966,-0.172,-0.013,1.420,0.000,0.000,0.000,0.000,0.000,0.000
11.401,-0.014,-0.139,-1.584,3.777,-2.570,0.138,22.809,-22.917,-0.120,0.304,0.027,0.478,-0.076,0.165,2.973,-0.170,-0.015,1.450,0.000,0.000,0.000,0.000,0.000,0.000
11.432,0.023,-0.806,-2.720,3.793,-2.553,0.119,22.960,-23.019,-0.115,0.088,0.049,0.343,-0.075,0.163,2.984,-0.191,-0.017,1.443,0.000,0.000,0.000,0.000,0.000,0.000
11.461,0.275,-0.582,-1.685,3.800,-2.548,0.104,23.036,-23.070,-0.112,-0.226,0.219,0.282,-0.075,0.162,2.992,-0.201,-0.013,1.423,0.000,0.000,0.000,0.000,0.000,0.000
11.491,0.120,-0.426,-0.086,3.814,-2.542,0.073,23.189,-23.172,-0.109,-0.035,0.117,0.264,-0.076,0.163,3.002,-0.195,-0.007,1.453,0.000,0.000,0.000,0.000,0.000,0.000
11.521,0.050,-0.557,-0.047,3.820,-2.540,0.059,23.265,-23.223,-0.108,0.097,-0.075,0.175,-0.077,0.165,3.011,-0.193,-0.006,1.465,0.000,0.000,0.000,0.000,0.000,0.000
11.551,0.276,-0.473,0.270,3.831,-2.541,0.036,23.418,-23.325,-0.106,-0.007,-0.004,0.056,-0.077,0.165,3.019,-0.199,-0.010,1.456,0.000,0.000,0.000,0.000,0.000,0.000
11.581,0.575,-0.518,0.454,3.837,-2.543,0.028,23.495,-23.375,-0.105,-0.092,0.166,0.045,-0.077,0.166,3.024,-0.203,-0.008,1.438,0.000,0.000,0.000,0.000,0.000,0.000
11.609,0.824,-0.471,1.770,3.850,-2.549,0.018,23.648,-23.477,-0.104,-0.061,0.117,0.055,-0.077,0.167,3.028,-0.200,-0.005,1.423,0.000,0.000,0.000,0.000,0.000,0.000
11.638,0.717,-0.524,2.087,3.859,-2.553,0.019,23.725,-23.528,-0.104,0.228,-0.090,0.143,-0.078,0.169,3.033,-0.198,0.001,1.453,0.000,0.000,0.000,0.000,0.000,0.000
11.668,0.634,-0.705,1.684,3.867,-2.558,0.024,23.803,-23.579,-0.103,0.530,0.106,0.238,-0.076,0.170,3.037,-0.206,0.000,1.469,0.000,0.000,0.000,0.000,0.000,0.000
11.699,-1.057,-1.009,-0.059,3.883,-2.571,0.037,23.958,-23.682,-0.102,-0.687,-0.700,-0.389,-0.071,0.169,3.042,-0.231,-0.008,1.445,0.000,0.000,0.000,0.000,0.000,0.000
11.728,-0.651,0.944,2.976,3.888,-2.579,0.047,24.043,-23.739,-0.101,-1.119,-0.431,-0.674,-0.072,0.166,3.043,-0.224,-0.020,1.450,0.000,0.000,0.000,0.000,0.000,0.000
11.760,1.854,2.046,3.236,3.897,-2.583,0.078,24.191,-23.837,-0.099,-0.175,0.486,-0.203,-0.083,0.160,3.037,-0.170,-0.028,1.459,0.000,0.000,0.000,0.000,0.000,0.000
11.789,1.451,1.465,1.558,3.906,-2.578,0.102,24.269,-23.888,-0.097,0.437,0.378,0.158,-0.088,0.160,3.034,-0.149,-0.011,1.442,0.000,0.000,0.000,0.000,0.000,0.000
11.820,-0.737,0.290,-1.369,3.924,-2.565,0.145,24.426,-23.991,-0.092,0.672,-0.203,0.425,-0.091,0.161,3.031,-0.161,-0.002,1.442,0.000,0.000,0.000,0.000,0.000,0.000
11.851,-1.768,0.261,-0.090,3.932,-2.552,0.171,24.583,-24.094,-0.086,0.162,-0.312,0.313,-0.088,0.160,3.033,-0.176,-0.029,1.474,0.000,0.000,0.000,0.000,0.000,0.000
11.880,-1.462,0.099,-0.295,3.930,-2.545,0.181,24.661,-24.145,-0.082,0.244,-0.024,0.089,-0.084,0.157,3.037,-0.178,-0.036,1.471,0.000,0.000,0.000,0.000,0.000,0.000
11.909,-0.570,-0.187,-1.885,3.920,-2.535,0.192,24.818,-24.246,-0.075,0.184,0.126,-0.035,-0.081,0.155,3.040,-0.184,-0.045,1.444,0.000,0.000,0.000,0.000,0.000,0.000
11.939,-0.283,-0.076,-1.841,3.915,-2.531,0.192,24.897,-24.297,-0.071,-0.176,0.315,-0.148,-0.075,0.154,3.043,-0.192,-0.041,1.451,0.000,0.000,0.000,0.000,0.000,0.000
11.969,0.131,-0.180,-1.388,3.905,-2.524,0.181,25.053,-24.398,-0.063,-0.270,0.472,-0.051,-0.074,0.156,3.043,-0.189,-0.036,1.471,0.000,0.000,0.000,0.000,0.000,0.000
11.998,-0.050,-0.378,-1.158,3.901,-2.522,0.173,25.131,-24.448,-0.060,-0.153,0.375,0.031,-0.074,0.161,3.043,-0.182,-0.016,1.458,0.000,0.000,0.000,0.000,0.000,0.000
12.026,-0.028,-0.487,-0.998,3.897,-2.521,0.162,25.217,-24.504,-0.056,0.026,-0.042,0.038,-0.075,0.166,3.043,-0.185,-0.008,1.444,0.000,0.000,0.000,0.000,0.000,0.000
12.055,-0.158,-0.568,-0.550,3.890,-2.522,0.141,25.365,-24.600,-0.050,0.023,-0.178,0.095,-0.076,0.170,3.044,-0.190,-0.010,1.428,0.000,0.000,0.000,0.000,0.000,0.000
12.085,-0.181,-0.531,-0.032,3.887,-2.524,0.131,25.443,-24.650,-0.048,-0.083,0.083,0.119,-0.076,0.172,3.045,-0.189,-0.015,1.442,0.000,0.000,0.000,0.000,0.000,0.000
12.116,-0.084,-0.610,0.967,3.880,-2.531,0.113,25.610,-24.759,-0.042,0.024,0.264,0.105,-0.077,0.175,3.047,-0.188,-0.015,1.440,0.000,0.000,0.000,0.000,0.000,0.000
12.148,0.150,-0.723,0.750,3.878,-2.536,0.110,25.680,-24.804,-0.040,0.346,0.216,0.160,-0.077,0.178,3.049,-0.194,-0.010,1.446,0.000,0.000,0.000,0.000,0.000,0.000
12.178,-0.160,-1.030,0.270,3.873,-2.548,0.105,25.831,-24.904,-0.036,0.419,0.110,0.214,-0.074,0.182,3.053,-0.213,-0.005,1.422,0.000,0.000,0.000,0.000,0.000,0.000
12.203,-0.053,-0.938,0.894,3.871,-2.557,0.104,25.908,-24.955,-0.034,0.409,0.044,0.164,-0.069,0.186,3.056,-0.220,-0.004,1.426,0.000,0.000,0.000,0.000,0.000,0.000
12.236,0.532,-0.597,1.113,3.867,-2.576,0.109,26.063,-25.057,-0.030,0.489,0.177,0.149,-0.061,0.190,3.061,-0.238,-0.004,1.412,0.000,0.000,0.000,0.000,0.000,0.000
12.265,0.600,-0.454,0.225,3.867,-2.586,0.113,26.140,-25.109,-0.028,0.462,0.098,0.213,-0.053,0.193,3.065,-0.252,0.002,1.434,0.000,0.000,0.000,0.000,0.000,0.000
12.289,-0.493,0.305,0.279,3.867,-2.604,0.121,26.295,-25.213,-0.023,-0.155,-0.403,-0.065,-0.046,0.195,3.068,-0.260,0.005,1.457,0.000,0.000,0.000,0.000,0.000,0.000
12.314,0.879,1.189,1.035,3.867,-2.610,0.126,26.372,-25.265,-0.021,-0.469,0.162,-0.242,-0.041,0.196,3.070,-0.251,-0.010,1.448,0.000,0.000,0.000,0.000,0.000,0.000
12.338,2.094,1.185,-0.283,3.871,-2.615,0.133,26.484,-25.341,-0.017,-0.277,0.464,-0.007,-0.039,0.196,3.071,-0.251,-0.010,1.425,0.000,0.000,0.000,0.000,0.000,0.000
12.364,1.390,0.847,-1.258,3.875,-2.616,0.134,26.527,-25.369,-0.015,-0.259,0.009,0.235,-0.040,0.199,3.072,-0.225,0.016,1.439,0.000,0.000,0.000,0.000,0.000,0.000
12.389,0.509,0.922,-0.729,3.890,-2.612,0.132,26.682,-25.474,-0.010,-0.450,-0.315,0.211,-0.042,0.201,3.073,-0.207,0.022,1.454,0.000,0.000,0.000,0.000,0.000,0.000
12.414,0.631,0.847,0.154,3.898,-2.608,0.129,26.760,-25.526,-0.007,-0.665,-0.312,0.233,-0.047,0.201,3.077,-0.190,0.018,1.477,0.000,0.000,0.000,0.000,0.000,0.000
12.441,0.485,0.773,0.881,3.907,-2.602,0.128,26.846,-25.583,-0.005,-0.492,-0.140,0.368,-0.056,0.199,3.081,-0.176,0.011,1.477,0.000,0.000,0.000,0.000,0.000,0.000
12.466,0.105,0.404,0.811,3.915,-2.597,0.128,26.917,-25.630,-0.002,-0.204,-0.070,0.409,-0.063,0.197,3.085,-0.160,0.005,1.458,0.000,0.000,0.000,0.000,0.000,0.000
12.492,-0.078,-0.619,-0.883,3.929,-2.587,0.129,27.073,-25.734,0.003,-0.028,-0.002,0.428,-0.072,0.195,3.093,-0.157,0.001,1.474,0.000,0.000,0.000,0.000,0.000,0.000
12.520,-0.313,-0.923,-1.043,3.935,-2.585,0.127,27.152,-25.786,0.006,0.108,-0.072,0.393,-0.078,0.193,3.101,-0.156,-0.001,1.493,0.000,0.000,0.000,0.000,0.000,0.000
12.545,-0.534,-1.083,-1.385,3.940,-2.585,0.122,27.243,-25.845,0.008,0.161,-0.092,0.315,-0.081,0.191,3.108,-0.169,-0.005,1.470,0.000,0.000,0.000,0.000,0.000,0.000
12.572,-0.435,-1.272,-1.621,3.944,-2.592,0.107,27.388,-25.941,0.013,0.093,-0.056,0.136,-0.084,0.189,3.117,-0.187,-0.012,1.467,0.000,0.000,0.000,0.000,0.000,0.000
12.598,-0.113,-1.214,-1.457,3.945,-2.599,0.096,27.467,-25.993,0.015,-0.027,-0.033,-0.016,-0.084,0.188,3.123,-0.187,-0.014,1.463,0.000,0.000,0.000,0.000,0.000,0.000
12.623,0.096,-1.009,-1.074,3.946,-2.607,0.083,27.546,-26.045,0.016,-0.057,-0.021,-0.076,-0.086,0.186,3.128,-0.198,-0.013,1.432,0.000,0.000,0.000,0.000,0.000,0.000
12.648,0.276,-0.987,-0.875,3.947,-2.617,0.068,27.629,-26.100,0.018,-0.110,-0.001,-0.123,-0.087,0.185,3.131,-0.195,-0.013,1.425,0.000,0.000,0.000,0.000,0.000,0.000
12.674,1.036,-0.628,0.366,3.951,-2.638,0.043,27.783,-26.202,0.020,-0.228,0.143,-0.119,-0.089,0.184,3.133,-0.196,-0.008,1.429,0.000,0.000,0.000,0.000,0.000,0.000
12.702,1.106,-0.553,1.006,3.956,-2.649,0.033,27.862,-26.255,0.021,0.042,0.098,0.054,-0.092,0.185,3.134,-0.194,0.001,1.438,0.000,0.000,0.000,0.000,0.000,0.000
12.728,0.802,-0.668,1.228,3.962,-2.660,0.026,27.941,-26.308,0.022,0.312,-0.068,0.144,-0.093,0.185,3.134,-0.191,0.004,1.449,0.000,0.000,0.000,0.000,0.000,0.000
12.757,0.113,-0.839,0.722,3.976,-2.683,0.020,28.100,-26.415,0.022,0.447,-0.117,0.202,-0.092,0.186,3.136,-0.206,0.002,1.422,0.000,0.000,0.000,0.000,0.000,0.000
12.783,0.033,-0.786,0.859,3.982,-2.695,0.019,28.180,-26.469,0.023,0.419,-0.132,0.224,-0.088,0.185,3.139,-0.220,-0.002,1.423,0.000,0.000,0.000,0.000,0.000,0.000
12.810,0.712,-1.024,0.886,3.994,-2.721,0.025,28.339,-26.577,0.024,0.542,-0.089,0.244,-0.081,0.183,-3.140,-0.242,-0.006,1.446,0.000,0.000,0.000,0.000,0.000,0.000
12.837,-0.534,-1.257,-0.221,4.000,-2.736,0.029,28.419,-26.632,0.024,0.512,-0.305,0.242,-0.075,0.182,-3.136,-0.251,-0.009,1.447,0.000,0.000,0.000,0.000,0.000,0.000
12.864,-1.355,-1.164,0.036,4.004,-2.751,0.032,28.499,-26.687,0.025,-0.822,-0.888,-0.338,-0.067,0.177,-3.132,-0.270,-0.025,1.409,0.000,0.000,0.000,0.000,0.000,0.000
12.892,1.531,2.030,5.355,4.008,-2.776,0.049,28.660,-26.797,0.026,-1.060,0.588,-0.632,-0.069,0.168,-3.132,-0.223,-0.048,1.419,0.000,0.000,0.000,0.000,0.000,0.000
12.918,3.185,1.651,3.730,4.015,-2.781,0.070,28.740,-26.853,0.028,-0.115,0.799,-0.134,-0.074,0.166,-3.135,-0.201,-0.034,1.425,0.000,0.000,0.000,0.000,0.000,0.000
12.948,2.599,1.103,1.412,4.027,-2.783,0.094,28.820,-26.908,0.029,0.645,-0.077,0.468,-0.080,0.166,-3.137,-0.190,-0.004,1.424,0.000,0.000,0.000,0.000,0.000,0.000
12.978,-1.377,0.370,-0.846,4.052,-2.783,0.136,28.982,-27.020,0.034,0.381,-0.225,0.392,-0.078,0.166,-3.134,-0.209,-0.018,1.448,0.000,0.000,0.000,0.000,0.000,0.000
13.004,-1.840,0.237,-1.136,4.059,-2.782,0.151,29.063,-27.075,0.037,0.048,0.092,0.169,-0.075,0.164,-3.131,-0.218,-0.028,1.469,0.000,0.000,0.000,0.000,0.000,0.000
13.032,-0.495,0.507,-1.136,4.062,-2.778,0.171,29.225,-27.187,0.043,-0.199,0.253,-0.173,-0.071,0.163,-3.126,-0.218,-0.036,1.496,0.000,0.000,0.000,0.000,0.000,0.000
13.058,0.132,0.441,-1.380,4.061,-2.775,0.176,29.307,-27.242,0.047,-0.151,0.206,-0.150,-0.070,0.165,-3.125,-0.212,-0.028,1.492,0.000,0.000,0.000,0.000,0.000,0.000
13.083,0.109,0.288,-1.424,4.062,-2.772,0.177,29.388,-27.298,0.050,-0.031,0.153,-0.031,-0.071,0.166,-3.124,-0.209,-0.023,1.508,0.000,0.000,0.000,0.000,0.000,0.000
13.109,-0.990,-0.560,-2.250,4.060,-2.766,0.170,29.550,-27.408,0.057,0.079,0.132,0.028,-0.071,0.168,-3.124,-0.212,-0.017,1.500,0.000,0.000,0.000,0.000,0.000,0.000
13.134,-0.993,-0.721,-2.573,4.056,-2.766,0.160,29.631,-27.464,0.060,0.034,0.202,-0.101,-0.070,0.172,-3.124,-0.227,-0.020,1.487,0.000,0.000,0.000,0.000,0.000,0.000
13.162,-0.937,-0.789,-2.357,4.051,-2.767,0.146,29.712,-27.519,0.064,-0.126,0.197,-0.258,-0.070,0.175,-3.125,-0.228,-0.015,1.506,0.000,0.000,0.000,0.000,0.000,0.000
13.186,-0.621,-0.644,-1.863,4.045,-2.769,0.129,29.793,-27.574,0.066,-0.171,0.137,-0.343,-0.071,0.178,-3.126,-0.236,-0.012,1.468,0.000,0.000,0.000,0.000,0.000,0.000
13.211,-0.017,-0.443,-0.740,4.033,-2.776,0.092,29.955,-27.685,0.071,-0.204,0.005,-0.345,-0.072,0.183,-3.131,-0.235,-0.003,1.419,0.000,0.000,0.000,0.000,0.000,0.000
13.235,0.210,-0.342,0.080,4.028,-2.780,0.075,30.036,-27.741,0.072,-0.175,-0.023,-0.297,-0.074,0.185,-3.135,-0.231,-0.001,1.443,0.000,0.000,0.000,0.000,0.000,0.000
13.261,0.647,-0.205,1.091,4.024,-2.785,0.061,30.116,-27.796,0.074,-0.015,0.024,-0.171,-0.077,0.187,-3.140,-0.227,0.003,1.451,0.000,0.000,0.000,0.000,0.000,0.000
13.284,0.971,-0.210,1.368,4.022,-2.789,0.050,30.197,-27.852,0.075,0.165,0.142,0.000,-0.079,0.188,3.139,-0.226,0.004,1.441,0.000,0.000,0.000,0.000,0.000,0.000
13.309,0.747,-0.743,0.681,4.025,-2.799,0.038,30.358,-27.964,0.077,0.287,0.299,0.211,-0.079,0.190,3.136,-0.234,0.014,1.423,0.000,0.000,0.000,0.000,0.000,0.000
13.332,0.747,-0.743,0.681,4.025,-2.799,0.038,30.358,-27.964,0.077,0.315,0.363,0.302,-0.079,0.192,3.134,-0.234,0.014,1.426,0.000,0.000,0.000,0.000,0.000,0.000
13.355,0.247,-1.025,1.047,4.031,-2.813,0.034,30.519,-28.076,0.078,0.443,0.269,0.487,-0.076,0.198,3.135,-0.253,0.027,1.426,0.000,0.000,0.000,0.000,0.000,0.000
13.378,0.106,-1.136,1.084,4.035,-2.822,0.036,30.603,-28.135,0.079,0.522,0.086,0.494,-0.070,0.204,3.139,-0.269,0.029,1.423,0.000,0.000,0.000,0.000,0.000,0.000
13.408,0.095,-0.936,0.849,4.038,-2.833,0.040,30.684,-28.192,0.080,0.463,0.145,0.453,-0.064,0.207,-3.139,-0.278,0.028,1.431,0.000,0.000,0.000,0.000,0.000,0.000
13.438,-0.749,0.050,-0.020,4.043,-2.853,0.047,30.842,-28.303,0.081,0.033,0.005,0.239,-0.055,0.213,-3.130,-0.301,0.027,1.467,0.000,0.000,0.000,0.000,0.000,0.000
13.465,-0.295,0.990,1.697,4.044,-2.862,0.053,30.923,-28.360,0.082,-0.608,-0.403,-0.138,-0.049,0.215,-3.123,-0.291,0.022,1.481,0.000,0.000,0.000,0.000,0.000,0.000
13.496,1.594,1.840,1.996,4.048,-2.869,0.074,31.084,-28.474,0.085,-0.221,-0.017,-0.054,-0.049,0.215,-3.119,-0.252,0.014,1.512,0.000,0.000,0.000,0.000,0.000,0.000
13.528,1.519,1.043,-0.072,4.054,-2.866,0.088,31.169,-28.535,0.086,-0.150,-0.169,0.199,-0.050,0.214,-3.115,-0.248,0.014,1.505,0.000,0.000,0.000,0.000,0.000,0.000
13.554,0.905,1.163,-0.196,4.070,-2.857,0.109,31.328,-28.646,0.090,-0.553,-0.249,0.088,-0.054,0.212,-3.111,-0.235,0.013,1.492,0.000,0.000,0.000,0.000,0.000,0.000
13.581,1.311,1.204,0.224,4.081,-2.850,0.117,31.409,-28.703,0.093,-0.411,-0.233,0.193,-0.060,0.209,-3.108,-0.213,0.015,1.511,0.000,0.000,0.000,0.000,0.000,0.000
13.608,0.987,1.027,-0.280,4.092,-2.841,0.125,31.491,-28.760,0.095,-0.297,-0.285,0.270,-0.065,0.206,-3.105,-0.204,0.010,1.526,0.000,0.000,0.000,0.000,0.000,0.000
13.635,0.293,0.718,-0.879,4.115,-2.821,0.134,31.655,-28.873,0.100,-0.320,-0.298,0.283,-0.073,0.201,-3.100,-0.185,0.002,1.534,0.000,0.000,0.000,0.000,0.000,0.000
13.663,0.313,0.541,-0.813,4.126,-2.810,0.136,31.738,-28.930,0.103,-0.249,-0.156,0.286,-0.081,0.195,-3.094,-0.174,-0.002,1.556,0.000,0.000,0.000,0.000,0.000,0.000
13.689,0.093,-0.019,-2.123,4.147,-2.790,0.131,31.903,-29.042,0.108,-0.053,0.023,0.353,-0.087,0.191,-3.090,-0.168,-0.006,1.578,0.000,0.000,0.000,0.000,0.000,0.000
13.715,-0.044,-0.477,-2.918,4.156,-2.782,0.123,31.986,-29.098,0.111,0.065,0.228,0.400,-0.093,0.187,-3.082,-0.169,-0.005,1.584,0.000,0.000,0.000,0.000,0.000,0.000
13.743,-0.059,-0.679,-2.884,4.164,-2.775,0.109,32.069,-29.153,0.113,-0.022,0.158,0.345,-0.097,0.186,-3.074,-0.181,0.003,1.594,0.000,0.000,0.000,0.000,0.000,0.000
13.770,0.131,-0.745,-2.094,4.177,-2.769,0.072,32.236,-29.264,0.117,-0.051,0.075,0.252,-0.101,0.186,-3.064,-0.191,0.012,1.582,0.000,0.000,0.000,0.000,0.000,0.000
13.798,0.520,-0.714,-1.533,4.183,-2.768,0.050,32.320,-29.319,0.118,-0.098,0.105,0.232,-0.102,0.187,-3.058,-0.191,0.013,1.565,0.000,0.000,0.000,0.000,0.000,0.000
13.823,0.766,-0.582,-0.703,4.191,-2.769,0.028,32.403,-29.375,0.119,-0.095,-0.092,0.307,-0.106,0.188,-3.049,-0.194,0.020,1.558,0.000,0.000,0.000,0.000,0.000,0.000
13.849,0.675,-0.300,1.171,4.207,-2.773,-0.009,32.571,-29.486,0.119,-0.011,-0.130,0.371,-0.107,0.188,-3.044,-0.192,0.017,1.576,0.000,0.000,0.000,0.000,0.000,0.000
13.875,0.218,-0.378,1.612,4.216,-2.776,-0.021,32.656,-29.541,0.119,0.170,0.033,0.413,-0.109,0.188,-3.034,-0.192,0.014,1.593,0.000,0.000,0.000,0.000,0.000,0.000
13.902,0.290,-0.566,1.447,4.225,-2.779,-0.029,32.748,-29.602,0.118,0.204,0.095,0.334,-0.109,0.188,-3.025,-0.199,0.014,1.606,0.000,0.000,0.000,0.000,0.000,0.000
13.929,0.306,-0.500,1.525,4.233,-2.783,-0.033,32.829,-29.655,0.118,0.178,0.117,0.309,-0.108,0.188,-3.018,-0.203,0.014,1.619,0.000,0.000,0.000,0.000,0.000,0.000
13.955,-0.671,-0.517,0.018,4.247,-2.793,-0.033,32.994,-29.764,0.116,0.167,0.155,0.232,-0.106,0.190,-3.008,-0.214,0.016,1.641,0.000,0.000,0.000,0.000,0.000,0.000
13.983,-1.456,-0.432,-1.080,4.250,-2.799,-0.033,33.079,-29.820,0.116,-0.914,-0.136,-0.308,-0.104,0.191,-3.000,-0.225,0.009,1.647,0.000,0.000,0.000,0.000,0.000,0.000
14.011,3.515,1.649,4.203,4.257,-2.805,-0.029,33.249,-29.932,0.114,-1.818,0.132,-0.700,-0.113,0.192,-2.997,-0.175,0.018,1.648,0.000,0.000,0.000,0.000,0.000,0.000
14.037,4.638,2.138,4.745,4.269,-2.803,-0.016,33.335,-29.988,0.114,-1.075,0.193,-0.143,-0.125,0.193,-2.999,-0.140,0.023,1.593,0.000,0.000,0.000,0.000,0.000,0.000
14.066,3.129,1.574,3.749,4.288,-2.797,0.004,33.420,-30.044,0.114,0.600,-0.119,1.008,-0.142,0.195,-2.999,-0.105,0.036,1.620,0.000,0.000,0.000,0.000,0.000,0.000
14.093,-2.173,0.495,0.372,4.326,-2.780,0.053,33.592,-30.155,0.115,1.305,-0.794,0.952,-0.149,0.194,-2.991,-0.126,0.012,1.651,0.000,0.000,0.000,0.000,0.000,0.000
14.121,-2.514,0.261,-0.574,4.336,-2.771,0.075,33.679,-30.211,0.116,0.254,-0.186,0.165,-0.146,0.188,-2.979,-0.152,-0.008,1.664,0.000,0.000,0.000,0.000,0.000,0.000
14.149,-0.493,0.665,-0.553,4.343,-2.753,0.109,33.853,-30.321,0.120,-0.095,0.371,-0.032,-0.142,0.184,-2.972,-0.167,-0.034,1.659,0.000,0.000,0.000,0.000,0.000,0.000
14.175,0.303,0.558,-0.761,4.345,-2.743,0.121,33.940,-30.376,0.122,-0.005,0.608,-0.132,-0.138,0.182,-2.963,-0.159,-0.018,1.660,0.000,0.000,0.000,0.000,0.000,0.000
14.206,0.346,0.258,-1.272,4.348,-2.734,0.131,34.031,-30.434,0.125,0.443,0.365,-0.068,-0.136,0.185,-2.958,-0.158,-0.005,1.657,0.000,0.000,0.000,0.000,0.000,0.000
14.235,-0.508,-0.454,-3.296,4.353,-2.718,0.135,34.201,-30.540,0.130,0.676,0.230,-0.001,-0.129,0.191,-2.955,-0.177,0.015,1.651,0.000,0.000,0.000,0.000,0.000,0.000
14.261,-0.673,-0.669,-3.589,4.353,-2.713,0.127,34.288,-30.594,0.133,0.417,0.171,-0.016,-0.120,0.196,-2.953,-0.206,0.022,1.628,0.000,0.000,0.000,0.000,0.000,0.000
14.288,-1.226,-0.546,-2.817,4.352,-2.709,0.113,34.375,-30.649,0.135,0.265,0.046,-0.104,-0.113,0.200,-2.952,-0.214,0.026,1.627,0.000,0.000,0.000,0.000,0.000,0.000
14.316,-1.524,-0.569,-1.324,4.342,-2.706,0.078,34.549,-30.757,0.139,0.235,-0.222,-0.473,-0.103,0.204,-2.952,-0.236,0.018,1.626,0.000,0.000,0.000,0.000,0.000,0.000
14.343,-0.743,-0.434,-1.035,4.329,-2.706,0.051,34.674,-30.835,0.141,0.099,-0.354,-0.715,-0.094,0.205,-2.955,-0.250,0.012,1.589,0.000,0.000,0.000,0.000,0.000,0.000
14.371,0.461,-0.213,0.116,4.317,-2.708,0.023,34.808,-30.919,0.142,-0.189,-0.292,-0.667,-0.088,0.203,-2.965,-0.252,0.010,1.569,0.000,0.000,0.000,0.000,0.000,0.000
14.398,1.181,-0.081,1.340,4.312,-2.709,0.009,34.895,-30.973,0.142,-0.299,-0.162,-0.501,-0.085,0.201,-2.972,-0.247,0.007,1.541,0.000,0.000,0.000,0.000,0.000,0.000
14.424,1.646,-0.063,2.163,4.310,-2.710,0.000,34.981,-31.028,0.142,0.194,0.173,-0.012,-0.084,0.198,-2.983,-0.237,0.013,1.547,0.000,0.000,0.000,0.000,0.000,0.000
14.453,0.450,-0.514,0.104,4.314,-2.714,-0.007,35.153,-31.136,0.142,0.816,0.117,0.475,-0.079,0.196,-2.991,-0.253,0.021,1.528,0.000,0.000,0.000,0.000,0.000,0.000
14.480,0.141,-0.840,-0.701,4.317,-2.717,-0.010,35.240,-31.190,0.142,0.342,0.042,0.445,-0.071,0.196,-2.992,-0.269,0.021,1.562,0.000,0.000,0.000,0.000,0.000,0.000
14.507,-0.651,-0.256,-0.306,4.320,-2.722,-0.013,35.326,-31.245,0.142,-0.144,-0.162,0.325,-0.065,0.197,-2.991,-0.283,0.016,1.576,0.000,0.000,0.000,0.000,0.000,0.000
14.536,0.317,1.072,3.313,4.321,-2.728,-0.014,35.499,-31.354,0.141,-0.786,-0.423,-0.077,-0.059,0.195,-2.988,-0.264,0.003,1.574,0.000,0.000,0.000,0.000,0.000,0.000
14.563,1.326,1.383,3.409,4.322,-2.727,-0.005,35.585,-31.408,0.141,-0.283,0.070,-0.013,-0.061,0.192,-2.987,-0.248,-0.005,1.585,0.000,0.000,0.000,0.000,0.000,0.000
14.589,0.981,0.380,-0.634,4.333,-2.720,0.022,35.758,-31.517,0.141,0.054,0.104,0.132,-0.064,0.190,-2.986,-0.227,0.003,1.597,0.000,0.000,0.000,0.000,0.000,0.000
14.615,0.266,0.515,-1.004,4.340,-2.716,0.031,35.845,-31.572,0.142,-0.301,-0.208,0.056,-0.067,0.188,-2.984,-0.223,0.005,1.616,0.000,0.000,0.000,0.000,0.000,0.000
14.644,0.608,0.836,-0.098,4.348,-2.710,0.040,35.936,-31.629,0.143,-0.657,-0.171,-0.138,-0.071,0.185,-2.983,-0.217,0.000,1.591,0.000,0.000,0.000,0.000,0.000,0.000
14.673,1.259,0.609,0.085,4.365,-2.698,0.053,36.106,-31.734,0.145,-0.408,-0.206,-0.016,-0.080,0.181,-2.982,-0.184,0.001,1.598,0.000,0.000,0.000,0.000,0.000,0.000
14.702,0.817,0.469,-0.209,4.376,-2.690,0.060,36.193,-31.788,0.146,-0.158,-0.230,0.130,-0.089,0.177,-2.982,-0.171,0.002,1.591,0.000,0.000,0.000,0.000,0.000,0.000
14.729,0.514,0.331,-0.601,4.388,-2.683,0.064,36.281,-31.842,0.147,-0.067,-0.154,0.192,-0.094,0.174,-2.981,-0.166,-0.003,1.603,0.000,0.000,0.000,0.000,0.000,0.000
14.756,0.196,-0.182,-1.063,4.409,-2.669,0.068,36.457,-31.949,0.150,0.057,0.035,0.288,-0.102,0.169,-2.979,-0.162,-0.008,1.628,0.000,0.000,0.000,0.000,0.000,0.000
14.782,0.307,-0.319,-1.035,4.419,-2.664,0.066,36.545,-32.002,0.151,0.312,0.068,0.373,-0.105,0.166,-2.975,-0.166,-0.004,1.619,0.000,0.000,0.000,0.000,0.000,0.000
14.812,-0.381,-0.839,-2.104,4.436,-2.658,0.056,36.722,-32.109,0.153,0.568,-0.020,0.398,-0.105,0.164,-2.969,-0.191,-0.004,1.562,0.000,0.000,0.000,0.000,0.000,0.000
14.840,-0.419,-1.113,-2.380,4.443,-2.658,0.044,36.820,-32.167,0.155,0.330,-0.018,0.285,-0.102,0.163,-2.962,-0.200,-0.006,1.585,0.000,0.000,0.000,0.000,0.000,0.000
14.865,-0.045,-0.919,-1.773,4.448,-2.660,0.032,36.900,-32.215,0.155,0.101,-0.005,0.230,-0.098,0.162,-2.957,-0.220,-0.005,1.599,0.000,0.000,0.000,0.000,0.000,0.000
14.893,0.381,-0.418,0.214,4.457,-2.668,0.003,37.078,-32.321,0.156,0.253,0.013,0.263,-0.092,0.161,-2.948,-0.227,-0.004,1.600,0.000,0.000,0.000,0.000,0.000,0.000
14.921,0.365,-0.550,-0.188,4.463,-2.672,-0.009,37.167,-32.375,0.156,0.599,-0.319,0.250,-0.087,0.160,-2.941,-0.230,-0.005,1.587,0.000,0.000,0.000,0.000,0.000,0.000
14.946,0.369,-0.416,0.420,4.468,-2.678,-0.020,37.257,-32.428,0.156,0.724,-0.660,0.266,-0.081,0.158,-2.936,-0.243,-0.007,1.589,0.000,0.000,0.000,0.000,0.000,0.000
14.974,-0.223,-0.274,0.302,4.479,-2.688,-0.035,37.436,-32.536,0.154,0.777,-0.617,0.301,-0.068,0.150,-2.928,-0.272,-0.036,1.587,0.000,0.000,0.000,0.000,0.000,0.000
15.004,-0.326,-0.843,0.043,4.483,-2.694,-0.040,37.525,-32.589,0.154,0.242,-0.027,0.274,-0.055,0.142,-2.920,-0.286,-0.051,1.609,0.000,0.000,0.000,0.000,0.000,0.000
15.032,-1.646,0.418,1.158,4.483,-2.706,-0.048,37.705,-32.697,0.152,-0.715,-0.293,-0.187,-0.042,0.134,-2.912,-0.296,-0.066,1.608,0.000,0.000,0.000,0.000,0.000,0.000
15.060,0.260,1.092,3.276,4.481,-2.709,-0.046,37.794,-32.752,0.151,-1.337,0.213,-0.572,-0.042,0.127,-2.910,-0.270,-0.071,1.585,0.000,0.000,0.000,0.000,0.000,0.000
15.086,2.275,1.353,4.934,4.481,-2.709,-0.037,37.884,-32.806,0.150,-0.629,0.512,-0.139,-0.047,0.124,-2.910,-0.241,-0.069,1.564,0.000,0.000,0.000,0.000,0.000,0.000
15.113,0.752,0.763,1.648,4.493,-2.704,0.002,38.063,-32.914,0.149,0.336,-0.042,0.342,-0.056,0.124,-2.911,-0.199,-0.038,1.561,0.000,0.000,0.000,0.000,0.000,0.000
15.143,-0.560,0.855,0.178,4.501,-2.699,0.024,38.158,-32.971,0.150,0.242,-0.356,0.347,-0.059,0.123,-2.909,-0.199,-0.046,1.571,0.000,0.000,0.000,0.000,0.000,0.000
15.169,-1.243,0.872,0.066,4.506,-2.693,0.044,38.252,-33.027,0.150,-0.070,-0.049,0.224,-0.060,0.121,-2.906,-0.205,-0.056,1.570,0.000,0.000,0.000,0.000,0.000,0.000
15.195,-0.731,0.469,-0.447,4.509,-2.679,0.075,38.424,-33.129,0.153,-0.177,0.393,0.040,-0.062,0.119,-2.902,-0.197,-0.068,1.572,0.000,0.000,0.000,0.000,0.000,0.000
15.219,-0.204,0.159,-1.150,4.508,-2.671,0.088,38.514,-33.183,0.154,-0.149,0.538,-0.049,-0.064,0.120,-2.899,-0.194,-0.061,1.566,0.000,0.000,0.000,0.000,0.000,0.000
15.244,0.115,-0.042,-1.647,4.507,-2.664,0.096,38.609,-33.239,0.156,0.005,0.509,-0.054,-0.066,0.125,-2.897,-0.190,-0.050,1.566,0.000,0.000,0.000,0.000,0.000,0.000
15.269,-0.196,-0.288,-2.422,4.506,-2.654,0.098,38.784,-33.343,0.160,0.071,0.356,-0.017,-0.068,0.130,-2.896,-0.193,-0.036,1.548,0.000,0.000,0.000,0.000,0.000,0.000
15.298,-0.346,-0.268,-2.099,4.505,-2.650,0.092,38.874,-33.396,0.162,0.068,0.170,0.009,-0.069,0.138,-2.895,-0.201,-0.022,1.514,0.000,0.000,0.000,0.000,0.000,0.000
15.330,-0.287,-0.365,-2.107,4.503,-2.647,0.082,38.969,-33.451,0.164,0.121,0.120,0.023,-0.069,0.142,-2.894,-0.200,-0.019,1.522,0.000,0.000,0.000,0.000,0.000,0.000
15.364,-0.650,-0.694,-2.054,4.499,-2.644,0.056,39.145,-33.555,0.166,0.077,0.147,0.117,-0.068,0.152,-2.892,-0.213,-0.014,1.486,-0.485,-0.122,0.025,0.499,0.025,0.499
15.395,-0.583,-0.726,-1.112,4.490,-2.647,0.019,39.324,-33.660,0.168,-0.045,0.093,0.061,-0.067,0.158,-2.890,-0.226,-0.012,1.475,-0.485,-0.122,0.025,0.499,0.025,0.499
15.426,-0.393,-0.652,0.189,4.485,-2.651,0.000,39.419,-33.716,0.168,0.013,0.033,0.012,-0.066,0.162,-2.888,-0.231,-0.012,1.459,-0.485,-0.122,0.025,0.499,0.025,0.499
15.459,0.097,-0.858,0.749,4.475,-2.661,-0.028,39.593,-33.820,0.168,0.173,0.137,0.086,-0.065,0.167,-2.886,-0.237,-0.010,1.451,-0.485,-0.122,0.025,0.499,0.025,0.499
15.488,0.378,-1.046,0.857,4.471,-2.668,-0.038,39.687,-33.875,0.167,0.220,0.327,0.171,-0.063,0.169,-2.885,-0.240,-0.009,1.455,-0.485,-0.122,0.025,0.499,0.025,0.499
15.519,0.285,-0.937,1.528,4.466,-2.685,-0.049,39.861,-33.980,0.165,0.430,0.220,0.263,-0.059,0.175,-2.882,-0.254,0.004,1.433,-0.485,-0.122,0.025,0.499,0.025,0.499
15.548,0.405,-0.716,1.524,4.466,-2.695,-0.049,39.951,-34.034,0.164,0.586,-0.038,0.205,-0.054,0.179,-2.878,-0.264,0.009,1.430,-0.485,-0.122,0.025,0.499,0.025,0.499
15.581,-0.753,0.758,0.628,4.465,-2.714,-0.044,40.129,-34.142,0.162,-0.066,-0.586,-0.099,-0.042,0.183,-2.873,-0.282,-0.004,1.387,-0.485,-0.122,0.025,0.499,0.025,0.499
15.611,1.516,1.310,2.878,4.463,-2.722,-0.028,40.308,-34.251,0.161,-0.689,-0.077,-0.463,-0.037,0.180,-2.871,-0.262,-0.018,1.378,-0.485,-0.122,0.025,0.499,0.025,0.499
15.644,2.911,0.942,2.086,4.467,-2.721,-0.014,40.402,-34.308,0.160,-0.395,0.314,-0.115,-0.038,0.178,-2.872,-0.248,-0.017,1.354,-0.485,-0.122,0.025,0.499,0.025,0.499
15.671,1.225,0.770,0.580,4.488,-2.716,0.019,40.585,-34.419,0.161,-0.237,-0.246,0.200,-0.042,0.177,-2.874,-0.220,0.008,1.353,-0.485,-0.122,0.025,0.499,0.025,0.499
15.702,1.000,0.566,0.372,4.499,-2.712,0.033,40.666,-34.468,0.161,-0.318,-0.057,0.252,-0.047,0.176,-2.874,-0.208,0.008,1.364,-0.485,-0.122,0.025,0.499,0.025,0.499
15.728,1.072,0.317,0.094,4.513,-2.707,0.047,40.756,-34.522,0.162,-0.227,0.001,0.331,-0.051,0.174,-2.873,-0.201,0.004,1.371,-0.485,-0.122,0.025,0.499,0.025,0.499
15.752,0.398,-0.022,-0.610,4.540,-2.699,0.070,40.933,-34.628,0.164,-0.183,-0.086,0.375,-0.055,0.173,-2.870,-0.191,0.007,1.380,-0.485,-0.122,0.025,0.499,0.025,0.499
15.778,0.375,-0.053,-0.612,4.552,-2.695,0.078,41.024,-34.682,0.166,-0.183,-0.086,0.375,-0.062,0.171,-2.864,-0.187,0.009,1.367,-0.485,-0.122,0.025,0.499,0.025,0.499
15.805,0.194,-0.032,-0.914,4.565,-2.692,0.084,41.115,-34.735,0.167,-0.183,-0.086,0.375,-0.066,0.170,-2.860,-0.184,0.006,1.352,-0.485,-0.122,0.025,0.499,0.025,0.499
15.832,-0.440,-0.563,-2.597,4.587,-2.687,0.084,41.312,-34.851,0.171,-0.183,-0.086,0.375,-0.070,0.169,-2.856,-0.181,0.002,1.356,-0.964,-0.264,0.133,0.987,0.133,0.987
15.856,-0.513,-0.753,-3.202,4.593,-2.687,0.078,41.390,-34.897,0.172,-0.183,-0.086,0.375,-0.074,0.168,-2.851,-0.194,0.002,1.331,-0.964,-0.264,0.133,0.987,0.133,0.987
15.881,-0.336,-0.952,-3.273,4.599,-2.688,0.064,41.482,-34.951,0.174,-0.183,-0.086,0.375,-0.082,0.165,-2.841,-0.190,-0.001,1.343,-0.964,-0.264,0.133,0.987,0.133,0.987
15.907,-0.056,-0.853,-2.340,4.604,-2.692,0.047,41.574,-35.004,0.175,0.039,0.050,0.148,-0.085,0.164,-2.836,-0.200,0.003,1.343,-0.964,-0.264,0.133,0.987,0.133,0.987
15.938,-0.014,-0.512,-0.862,4.613,-2.701,0.007,41.758,-35.112,0.176,0.109,-0.056,0.126,-0.091,0.161,-2.826,-0.208,0.006,1.321,-0.964,-0.264,0.133,0.987,0.133,0.987
15.965,-0.580,0.080,-0.666,4.616,-2.706,-0.012,41.850,-35.166,0.176,-0.012,-0.252,0.000,-0.093,0.160,-2.822,-0.210,0.005,1.320,-0.964,-0.264,0.133,0.987,0.133,0.987
15.993,0.755,-0.210,2.072,4.621,-2.715,-0.045,42.035,-35.275,0.175,-0.310,-0.660,-0.120,-0.096,0.158,-2.818,-0.209,-0.008,1.315,-0.964,-0.264,0.133,0.987,0.133,0.987
16.023,0.840,0.005,2.697,4.625,-2.719,-0.053,42.127,-35.329,0.174,0.220,-0.078,0.338,-0.101,0.151,-2.811,-0.197,-0.020,1.317,-0.964,-0.264,0.133,0.987,0.133,0.987
16.051,-0.695,-1.260,-0.096,4.633,-2.731,-0.059,42.313,-35.438,0.171,0.347,0.254,0.550,-0.103,0.148,-2.807,-0.217,-0.031,1.307,-0.964,-0.264,0.133,0.987,0.133,0.987
16.080,-0.181,-2.263,0.248,4.635,-2.741,-0.061,42.405,-35.493,0.170,0.128,-0.066,0.279,-0.105,0.143,-2.798,-0.209,-0.029,1.300,-0.964,-0.264,0.133,0.987,0.133,0.987
16.105,1.175,-2.031,0.907,4.638,-2.754,-0.062,42.498,-35.548,0.169,0.169,-0.809,0.281,-0.105,0.140,-2.793,-0.223,-0.015,1.279,-0.964,-0.264,0.133,0.987,0.133,0.987
16.129,-0.506,0.597,2.045,4.646,-2.781,-0.056,42.684,-35.658,0.167,0.150,-1.117,0.308,-0.105,0.136,-2.788,-0.214,-0.055,1.304,-0.964,-0.264,0.133,0.987,0.133,0.987
16.154,0.343,0.536,2.011,4.649,-2.791,-0.047,42.777,-35.714,0.166,-0.005,-0.628,-0.027,-0.105,0.130,-2.783,-0.209,-0.076,1.321,-0.964,-0.264,0.133,0.987,0.133,0.987
16.179,1.534,0.395,1.829,4.653,-2.799,-0.036,42.865,-35.767,0.165,-0.420,0.545,0.148,-0.106,0.120,-2.775,-0.198,-0.072,1.327,-0.964,-0.264,0.133,0.987,0.133,0.987
16.204,1.457,0.567,2.172,4.661,-2.806,-0.021,42.963,-35.826,0.164,-0.142,0.608,0.313,-0.107,0.117,-2.772,-0.184,-0.067,1.330,-0.964,-0.264,0.133,0.987,0.133,0.987
16.231,-0.218,0.800,0.139,4.678,-2.813,0.012,43.150,-35.938,0.164,0.257,0.454,0.407,-0.108,0.115,-2.768,-0.165,-0.044,1.336,-0.964,-0.264,0.133,0.987,0.133,0.987
16.255,-1.055,0.653,-0.592,4.684,-2.814,0.026,43.243,-35.995,0.164,0.426,0.138,0.425,-0.108,0.114,-2.763,-0.171,-0.049,1.331,-0.964,-0.264,0.133,0.987,0.133,0.987
16.280,-1.399,0.416,-1.156,4.687,-2.814,0.037,43.337,-36.051,0.165,0.252,-0.021,0.176,-0.107,0.113,-2.753,-0.174,-0.051,1.331,-0.964,-0.264,0.133,0.987,0.133,0.987
16.306,-0.831,-0.079,-1.721,4.688,-2.813,0.044,43.431,-36.107,0.166,0.068,0.198,0.037,-0.105,0.113,-2.748,-0.186,-0.059,1.338,-0.964,-0.264,0.133,0.987,0.133,0.987
16.333,-0.099,-0.499,-1.876,4.687,-2.813,0.047,43.543,-36.175,0.167,-0.027,0.293,0.038,-0.104,0.113,-2.744,-0.185,-0.059,1.339,-1.425,-0.457,0.248,1.474,0.248,1.474
16.366,-0.606,-0.687,-1.930,4.686,-2.816,0.044,43.717,-36.279,0.169,-0.049,0.180,0.034,-0.102,0.114,-2.736,-0.190,-0.047,1.315,-1.425,-0.457,0.248,1.474,0.248,1.474
16.395,-0.698,-0.909,-1.716,4.680,-2.823,0.026,43.899,-36.389,0.170,-0.117,0.247,-0.020,-0.102,0.115,-2.733,-0.197,-0.043,1.314,-1.425,-0.457,0.248,1.474,0.248,1.474
16.424,-0.611,-0.904,-1.434,4.675,-2.830,0.012,44.002,-36.451,0.170,-0.132,0.180,-0.086,-0.101,0.119,-2.727,-0.207,-0.038,1.314,-1.425,-0.457,0.248,1.474,0.248,1.474
16.454,-0.471,-1.029,-1.086,4.665,-2.845,-0.016,44.180,-36.559,0.170,-0.120,0.189,-0.086,-0.101,0.121,-2.725,-0.212,-0.030,1.310,-1.425,-0.457,0.248,1.474,0.248,1.474
16.487,-0.430,-1.077,-0.576,4.658,-2.855,-0.032,44.278,-36.619,0.170,-0.177,0.177,-0.010,-0.102,0.125,-2.722,-0.207,-0.025,1.317,-1.425,-0.457,0.248,1.474,0.248,1.474
16.513,-0.737,-1.031,0.535,4.645,-2.877,-0.058,44.454,-36.728,0.168,-0.105,0.038,0.029,-0.103,0.128,-2.721,-0.207,-0.020,1.311,-1.425,-0.457,0.248,1.474,0.248,1.474
16.540,-0.641,-1.110,0.594,4.637,-2.890,-0.069,44.552,-36.788,0.167,0.065,0.084,0.092,-0.105,0.132,-2.718,-0.216,-0.022,1.299,-1.425,-0.457,0.248,1.474,0.248,1.474
16.569,-0.399,-1.396,0.592,4.620,-2.919,-0.082,44.732,-36.902,0.164,0.130,0.287,0.137,-0.106,0.134,-2.717,-0.228,-0.018,1.301,-1.425,-0.457,0.248,1.474,0.248,1.474
16.595,-0.540,-1.469,0.819,4.612,-2.935,-0.086,44.825,-36.960,0.162,0.186,0.285,0.177,-0.106,0.136,-2.715,-0.229,-0.013,1.305,-1.425,-0.457,0.248,1.474,0.248,1.474
16.622,-0.279,-1.593,1.200,4.603,-2.953,-0.087,44.917,-37.019,0.160,0.158,0.173,0.125,-0.105,0.142,-2.711,-0.243,-0.007,1.305,-1.425,-0.457,0.248,1.474,0.248,1.474
16.651,-0.071,-0.157,1.227,4.588,-2.991,-0.082,45.101,-37.138,0.157,0.077,0.026,0.099,-0.105,0.145,-2.709,-0.247,-0.004,1.295,-1.425,-0.457,0.248,1.474,0.248,1.474
16.677,0.661,0.509,2.144,4.582,-3.008,-0.075,45.197,-37.201,0.155,-0.162,-0.314,-0.050,-0.104,0.147,-2.708,-0.244,-0.008,1.297,-1.425,-0.457,0.248,1.474,0.248,1.474
16.702,1.634,0.649,2.764,4.579,-3.021,-0.065,45.284,-37.258,0.154,-0.287,-0.440,-0.172,-0.104,0.148,-2.705,-0.228,-0.011,1.305,-1.425,-0.457,0.248,1.474,0.248,1.474
16.728,1.431,0.963,1.900,4.585,-3.040,-0.031,45.472,-37.382,0.152,-0.143,-0.437,-0.070,-0.105,0.148,-2.705,-0.219,-0.020,1.313,-1.425,-0.457,0.248,1.474,0.248,1.474
16.756,1.182,1.075,1.317,4.591,-3.044,-0.011,45.563,-37.443,0.152,-0.160,-0.359,-0.020,-0.107,0.146,-2.704,-0.199,-0.033,1.325,-1.425,-0.457,0.248,1.474,0.248,1.474
16.785,1.408,0.682,0.883,4.599,-3.047,0.009,45.655,-37.504,0.152,-0.299,0.109,0.015,-0.110,0.143,-2.704,-0.184,-0.033,1.319,-1.425,-0.457,0.248,1.474,0.248,1.474
16.811,0.979,0.026,-0.691,4.620,-3.049,0.043,45.835,-37.623,0.153,-0.180,0.147,0.126,-0.112,0.142,-2.704,-0.168,-0.024,1.325,-1.425,-0.457,0.248,1.474,0.248,1.474
16.838,0.524,-0.046,-1.469,4.635,-3.050,0.059,45.946,-37.696,0.154,-0.154,-0.084,0.170,-0.117,0.140,-2.702,-0.165,-0.022,1.318,-1.878,-0.670,0.370,1.959,0.370,1.959
16.866,0.422,-0.056,-1.325,4.645,-3.051,0.066,46.025,-37.748,0.155,-0.258,-0.066,0.138,-0.119,0.139,-2.701,-0.163,-0.019,1.328,-1.878,-0.670,0.370,1.959,0.370,1.959
16.892,0.550,-0.118,-0.893,4.668,-3.053,0.075,46.207,-37.867,0.158,-0.156,0.007,0.188,-0.122,0.138,-2.699,-0.153,-0.017,1.327,-1.878,-0.670,0.370,1.959,0.370,1.959
16.921,0.048,-0.382,-1.708,4.679,-3.054,0.075,46.300,-37.928,0.159,0.272,0.075,0.324,-0.126,0.137,-2.696,-0.152,-0.017,1.335,-1.878,-0.670,0.370,1.959,0.370,1.959
16.946,-0.403,-0.581,-2.293,4.690,-3.056,0.071,46.399,-37.992,0.161,0.222,0.076,0.220,-0.127,0.136,-2.693,-0.165,-0.015,1.356,-1.878,-0.670,0.370,1.959,0.370,1.959
16.975,-0.372,-0.796,-1.901,4.705,-3.064,0.053,46.586,-38.115,0.163,0.140,0.072,0.172,-0.128,0.136,-2.690,-0.186,-0.011,1.354,-1.878,-0.670,0.370,1.959,0.370,1.959
17.004,-0.454,-0.786,-1.654,4.710,-3.069,0.039,46.681,-38.176,0.164,0.010,0.232,0.114,-0.128,0.137,-2.685,-0.188,-0.010,1.371,-1.878,-0.670,0.370,1.959,0.370,1.959
17.030,-0.129,-0.684,-0.248,4.717,-3.084,0.009,46.869,-38.299,0.165,-0.092,0.290,0.076,-0.129,0.137,-2.683,-0.195,-0.000,1.356,-1.878,-0.670,0.370,1.959,0.370,1.959
17.059,0.149,-0.594,0.498,4.720,-3.092,-0.004,46.964,-38.361,0.165,0.106,0.054,0.027,-0.129,0.140,-2.678,-0.197,0.007,1.352,-1.878,-0.670,0.370,1.959,0.370,1.959
17.088,0.016,-0.675,0.689,4.725,-3.109,-0.024,47.152,-38.485,0.165,0.286,-0.082,0.049,-0.129,0.141,-2.676,-0.204,0.010,1.335,-1.878,-0.670,0.370,1.959,0.370,1.959
17.115,0.151,-0.730,1.332,4.728,-3.119,-0.029,47.247,-38.547,0.164,0.281,-0.180,0.054,-0.129,0.142,-2.674,-0.207,0.007,1.333,-1.878,-0.670,0.370,1.959,0.370,1.959
17.143,0.326,-0.799,1.977,4.730,-3.129,-0.031,47.342,-38.610,0.163,0.314,-0.131,0.169,-0.126,0.143,-2.670,-0.215,0.005,1.338,-1.878,-0.670,0.370,1.959,0.370,1.959
17.173,-1.043,-0.173,0.137,4.735,-3.151,-0.026,47.531,-38.735,0.162,0.463,-0.162,0.241,-0.124,0.143,-2.668,-0.231,-0.009,1.338,-1.878,-0.670,0.370,1.959,0.370,1.959
17.199,-1.914,0.226,-0.365,4.734,-3.160,-0.023,47.626,-38.798,0.162,-0.566,-0.886,-0.434,-0.119,0.139,-2.663,-0.238,-0.017,1.347,-1.878,-0.670,0.370,1.959,0.370,1.959
17.224,0.008,0.682,1.197,4.730,-3.168,-0.019,47.715,-38.858,0.161,-1.348,-0.198,-0.698,-0.119,0.136,-2.663,-0.231,-0.036,1.347,-1.878,-0.670,0.370,1.959,0.370,1.959
17.249,3.499,0.050,3.268,4.736,-3.179,0.003,47.909,-38.988,0.161,-1.221,0.556,-0.161,-0.122,0.134,-2.664,-0.171,-0.025,1.383,-1.878,-0.670,0.370,1.959,0.370,1.959
17.274,1.304,0.755,1.684,4.746,-3.182,0.020,48.004,-39.052,0.161,-0.139,0.491,0.426,-0.126,0.132,-2.664,-0.160,-0.012,1.380,-1.878,-0.670,0.370,1.959,0.370,1.959
17.301,-0.066,0.682,-0.199,4.756,-3.183,0.037,48.099,-39.116,0.162,0.426,-0.392,0.443,-0.131,0.131,-2.662,-0.159,-0.012,1.383,-1.878,-0.670,0.370,1.959,0.370,1.959
17.327,-0.922,0.946,-0.705,4.764,-3.183,0.051,48.190,-39.176,0.163,0.062,-0.324,0.275,-0.132,0.129,-2.659,-0.168,-0.020,1.372,-1.878,-0.670,0.370,1.959,0.370,1.959
17.354,-0.395,0.668,0.091,4.774,-3.178,0.074,48.385,-39.307,0.165,-0.258,-0.060,0.106,-0.133,0.127,-2.657,-0.169,-0.045,1.398,-2.321,-0.901,0.468,2.449,0.468,2.449
17.381,0.142,0.160,-0.297,4.777,-3.174,0.084,48.481,-39.370,0.167,-0.149,0.337,-0.020,-0.137,0.124,-2.653,-0.161,-0.042,1.415,-2.321,-0.901,0.468,2.449,0.468,2.449
17.407,0.324,-0.259,-0.951,4.780,-3.171,0.091,48.576,-39.434,0.169,0.031,0.363,0.057,-0.139,0.124,-2.651,-0.155,-0.037,1.408,-2.321,-0.901,0.468,2.449,0.468,2.449
17.432,-0.366,-0.666,-2.116,4.787,-3.167,0.095,48.768,-39.560,0.172,0.222,0.277,0.136,-0.140,0.125,-2.649,-0.161,-0.019,1.404,-2.321,-0.901,0.468,2.449,0.468,2.449
17.458,-0.722,-0.638,-2.615,4.788,-3.168,0.090,48.863,-39.624,0.174,0.307,0.248,0.150,-0.141,0.127,-2.645,-0.178,-0.015,1.391,-2.321,-0.901,0.468,2.449,0.468,2.449
17.483,-0.895,-0.672,-2.722,4.788,-3.170,0.081,48.959,-39.687,0.176,0.231,0.233,0.099,-0.140,0.129,-2.643,-0.184,-0.011,1.408,-2.321,-0.901,0.468,2.449,0.468,2.449
17.508,-0.450,-0.517,-2.237,4.783,-3.176,0.049,49.151,-39.814,0.178,0.164,0.145,0.057,-0.140,0.131,-2.641,-0.204,-0.003,1.395,-2.321,-0.901,0.468,2.449,0.468,2.449
17.535,-0.472,-0.379,-1.811,4.780,-3.180,0.030,49.246,-39.878,0.179,0.140,0.028,0.095,-0.138,0.133,-2.639,-0.214,-0.001,1.396,-2.321,-0.901,0.468,2.449,0.468,2.449
17.565,-0.825,-0.208,-1.521,4.775,-3.185,0.009,49.342,-39.941,0.180,0.049,-0.010,0.126,-0.136,0.136,-2.635,-0.216,-0.002,1.429,-2.321,-0.901,0.468,2.449,0.468,2.449
17.600,-0.581,-0.389,0.032,4.763,-3.193,-0.034,49.533,-40.069,0.179,-0.181,0.032,0.016,-0.134,0.139,-2.631,-0.225,-0.008,1.423,-2.321,-0.901,0.468,2.449,0.468,2.449
17.631,0.334,-0.527,1.694,4.751,-3.203,-0.064,49.723,-40.197,0.177,-0.119,0.167,0.073,-0.134,0.140,-2.629,-0.221,-0.005,1.430,-2.321,-0.901,0.468,2.449,0.468,2.449
17.664,0.121,-0.798,1.703,4.747,-3.210,-0.072,49.818,-40.261,0.176,0.249,0.329,0.312,-0.133,0.144,-2.625,-0.224,0.000,1.404,-2.321,-0.901,0.468,2.449,0.468,2.449
17.694,-0.207,-1.209,1.628,4.738,-3.226,-0.077,50.008,-40.390,0.173,0.307,0.241,0.313,-0.132,0.146,-2.622,-0.239,0.011,1.394,-2.321,-0.901,0.468,2.449,0.468,2.449
17.723,-0.599,-0.413,1.701,4.734,-3.236,-0.074,50.102,-40.454,0.171,0.064,-0.373,0.131,-0.129,0.151,-2.616,-0.244,0.013,1.401,-2.321,-0.901,0.468,2.449,0.468,2.449
17.747,0.622,0.858,3.611,4.724,-3.251,-0.055,50.287,-40.581,0.169,-0.308,-0.497,-0.164,-0.127,0.152,-2.613,-0.246,0.001,1.416,-2.321,-0.901,0.468,2.449,0.468,2.449
17.774,2.059,0.586,3.531,4.722,-3.255,-0.036,50.381,-40.646,0.168,-0.463,-0.027,-0.327,-0.127,0.152,-2.611,-0.222,-0.010,1.451,-2.321,-0.901,0.468,2.449,0.468,2.449
17.801,2.450,-0.198,1.973,4.725,-3.259,-0.013,50.480,-40.714,0.167,0.142,0.358,0.009,-0.127,0.154,-2.609,-0.215,-0.002,1.445,-2.321,-0.901,0.468,2.449,0.468,2.449
17.826,1.796,-0.195,0.529,4.732,-3.262,0.009,50.575,-40.779,0.167,0.181,-0.103,0.064,-0.127,0.155,-2.608,-0.210,0.018,1.447,-2.752,-1.156,0.535,2.945,0.535,2.945
17.853,1.555,0.441,0.027,4.752,-3.268,0.048,50.760,-40.907,0.168,0.002,-0.280,0.056,-0.127,0.156,-2.607,-0.206,0.022,1.451,-2.752,-1.156,0.535,2.945,0.535,2.945
17.876,1.387,0.623,0.281,4.766,-3.269,0.066,50.860,-40.975,0.170,-0.204,-0.114,0.117,-0.127,0.157,-2.606,-0.205,0.017,1.455,-2.752,-1.156,0.535,2.945,0.535,2.945
17.901,0.961,0.597,-0.067,4.780,-3.269,0.081,50.955,-41.041,0.171,-0.103,-0.081,0.167,-0.128,0.157,-2.604,-0.193,0.018,1.488,-2.752,-1.156,0.535,2.945,0.535,2.945
17.928,0.256,0.429,-1.254,4.809,-3.266,0.104,51.147,-41.171,0.175,-0.071,-0.037,0.171,-0.129,0.157,-2.602,-0.186,0.015,1.511,-2.752,-1.156,0.535,2.945,0.535,2.945
17.953,-0.193,0.349,-1.751,4.821,-3.263,0.110,51.243,-41.237,0.177,-0.064,0.088,0.204,-0.130,0.158,-2.600,-0.186,0.015,1.511,-2.752,-1.156,0.535,2.945,0.535,2.945
17.978,-0.667,0.292,-2.151,4.832,-3.260,0.112,51.340,-41.302,0.179,-0.009,0.173,0.144,-0.131,0.159,-2.596,-0.187,0.014,1.492,-2.752,-1.156,0.535,2.945,0.535,2.945
18.008,-0.052,-0.412,-1.704,4.847,-3.255,0.102,51.533,-41.432,0.183,0.002,0.032,-0.007,-0.132,0.159,-2.594,-0.192,0.024,1.457,-2.752,-1.156,0.535,2.945,0.535,2.945
18.036,0.498,-0.557,-1.834,4.853,-3.254,0.092,51.630,-41.497,0.185,0.076,-0.253,-0.067,-0.132,0.160,-2.592,-0.192,0.022,1.464,-2.752,-1.156,0.535,2.945,0.535,2.945
18.065,0.383,-0.664,-1.952,4.860,-3.254,0.080,51.727,-41.562,0.187,0.170,-0.280,0.280,-0.133,0.159,-2.588,-0.200,0.024,1.471,-2.752,-1.156,0.535,2.945,0.535,2.945
18.094,-0.243,-0.447,-1.563,4.872,-3.258,0.049,51.922,-41.693,0.190,0.119,-0.356,0.379,-0.132,0.158,-2.586,-0.213,0.012,1.458,-2.752,-1.156,0.535,2.945,0.535,2.945
18.126,-0.437,-0.244,-0.637,4.876,-3.261,0.031,52.024,-41.761,0.191,-0.020,-0.500,0.250,-0.131,0.154,-2.580,-0.214,0.002,1.474,-2.752,-1.156,0.535,2.945,0.535,2.945
18.158,0.023,-0.234,0.526,4.882,-3.267,0.000,52.215,-41.888,0.191,0.029,-0.051,0.021,-0.130,0.147,-2.574,-0.216,-0.020,1.492,-2.752,-1.156,0.535,2.945,0.535,2.945
18.184,0.337,-0.376,0.801,4.885,-3.270,-0.011,52.308,-41.950,0.191,0.143,0.227,0.051,-0.130,0.144,-2.571,-0.216,-0.023,1.471,-2.752,-1.156,0.535,2.945,0.535,2.945
18.212,0.113,-0.991,0.795,4.891,-3.281,-0.027,52.508,-42.085,0.190,0.173,0.123,0.114,-0.129,0.142,-2.568,-0.226,-0.012,1.430,-2.752,-1.156,0.535,2.945,0.535,2.945
18.238,-0.051,-1.166,0.626,4.894,-3.289,-0.031,52.606,-42.150,0.190,0.108,0.160,0.161,-0.127,0.139,-2.563,-0.228,-0.011,1.413,-2.752,-1.156,0.535,2.945,0.535,2.945
18.265,0.139,-1.577,0.778,4.897,-3.298,-0.033,52.699,-42.213,0.189,0.010,0.265,0.169,-0.126,0.138,-2.560,-0.240,-0.005,1.388,-2.752,-1.156,0.535,2.945,0.535,2.945
18.291,-0.790,0.343,1.223,4.901,-3.319,-0.034,52.895,-42.345,0.188,-0.204,-0.114,0.110,-0.125,0.137,-2.557,-0.237,-0.005,1.408,-2.752,-1.156,0.535,2.945,0.535,2.945
18.316,0.258,1.193,2.728,4.902,-3.327,-0.029,52.998,-42.415,0.187,-0.691,-0.516,-0.209,-0.125,0.136,-2.555,-0.227,-0.013,1.440,-2.752,-1.156,0.535,2.945,0.535,2.945
18.343,1.890,0.970,4.371,4.905,-3.334,-0.014,53.130,-42.505,0.186,-0.786,0.194,-0.373,-0.130,0.132,-2.552,-0.189,-0.023,1.489,-3.167,-1.433,0.600,3.441,0.600,3.441
18.371,2.026,0.052,2.399,4.921,-3.338,0.020,53.287,-42.612,0.187,-0.033,0.386,0.046,-0.134,0.131,-2.552,-0.162,-0.008,1.504,-3.167,-1.433,0.600,3.441,0.600,3.441
18.399,0.121,0.609,0.480,4.934,-3.339,0.043,53.386,-42.679,0.187,0.684,-0.154,0.608,-0.138,0.130,-2.550,-0.167,-0.003,1.459,-3.167,-1.433,0.600,3.441,0.600,3.441
18.425,-1.138,1.072,-0.693,4.944,-3.339,0.066,53.490,-42.749,0.188,0.415,-0.149,0.479,-0.138,0.129,-2.547,-0.179,-0.016,1.444,-3.167,-1.433,0.600,3.441,0.600,3.441
18.451,-0.854,0.582,-0.795,4.955,-3.332,0.098,53.688,-42.882,0.192,0.066,0.088,0.215,-0.138,0.128,-2.544,-0.193,-0.032,1.410,-3.167,-1.433,0.600,3.441,0.600,3.441
18.476,0.023,-0.212,-1.279,4.958,-3.328,0.108,53.787,-42.949,0.194,-0.064,0.485,0.001,-0.138,0.128,-2.541,-0.190,-0.027,1.429,-3.167,-1.433,0.600,3.441,0.600,3.441
18.502,0.326,-0.976,-2.154,4.961,-3.326,0.114,53.881,-43.012,0.196,0.302,0.396,0.140,-0.137,0.130,-2.536,-0.197,-0.006,1.429,-3.167,-1.433,0.600,3.441,0.600,3.441
18.528,-0.841,-0.558,-3.105,4.964,-3.327,0.110,54.084,-43.148,0.200,0.365,0.192,0.215,-0.135,0.133,-2.533,-0.199,0.004,1.416,-3.167,-1.433,0.600,3.441,0.600,3.441
18.554,-1.079,-0.453,-2.957,4.963,-3.329,0.099,54.184,-43.215,0.203,0.254,0.162,0.205,-0.134,0.135,-2.530,-0.224,0.012,1.386,-3.167,-1.433,0.600,3.441,0.600,3.441
18.584,-0.770,-0.289,-2.482,4.960,-3.331,0.084,54.283,-43.281,0.204,0.016,0.095,0.061,-0.130,0.140,-2.524,-0.237,0.014,1.375,-3.167,-1.433,0.600,3.441,0.600,3.441
18.609,-0.342,-0.097,-1.166,4.953,-3.337,0.047,54.481,-43.415,0.207,0.002,-0.117,0.045,-0.128,0.143,-2.522,-0.239,0.016,1.360,-3.167,-1.433,0.600,3.441,0.600,3.441
18.634,-0.322,0.054,-0.780,4.948,-3.340,0.028,54.580,-43.482,0.208,0.043,-0.227,0.054,-0.126,0.144,-2.519,-0.236,0.011,1.378,-3.167,-1.433,0.600,3.441,0.600,3.441
18.664,-0.292,0.096,-0.342,4.944,-3.343,0.009,54.679,-43.548,0.208,0.073,-0.239,0.021,-0.123,0.146,-2.515,-0.239,0.005,1.360,-3.167,-1.433,0.600,3.441,0.600,3.441
18.691,0.237,-0.181,0.628,4.935,-3.346,-0.021,54.872,-43.679,0.208,0.115,-0.169,-0.011,-0.122,0.146,-2.513,-0.238,-0.004,1.359,-3.167,-1.433,0.600,3.441,0.600,3.441
18.718,0.683,-0.751,0.690,4.932,-3.349,-0.033,54.980,-43.752,0.207,0.432,0.184,0.188,-0.118,0.146,-2.509,-0.238,-0.006,1.346,-3.167,-1.433,0.600,3.441,0.600,3.441
18.743,0.816,-1.145,0.589,4.931,-3.353,-0.042,55.074,-43.816,0.207,0.688,0.130,0.382,-0.115,0.147,-2.507,-0.247,0.003,1.320,-3.167,-1.433,0.600,3.441,0.600,3.441
18.773,0.109,-1.161,-0.057,4.932,-3.368,-0.055,55.271,-43.951,0.205,0.888,-0.125,0.513,-0.110,0.147,-2.504,-0.277,0.008,1.279,-3.167,-1.433,0.600,3.441,0.600,3.441
18.802,-1.010,0.627,-0.403,4.932,-3.375,-0.060,55.365,-44.015,0.204,-0.037,-1.351,0.081,-0.099,0.145,-2.497,-0.291,-0.002,1.277,-3.167,-1.433,0.600,3.441,0.600,3.441
18.828,-0.540,1.490,2.392,4.930,-3.380,-0.063,55.464,-44.082,0.202,-0.632,-0.936,-0.285,-0.094,0.141,-2.494,-0.290,-0.036,1.364,-3.566,-1.735,0.705,3.929,0.705,3.929
18.854,2.415,-0.061,2.718,4.932,-3.383,-0.051,55.666,-44.221,0.200,-0.462,-0.171,-0.459,-0.090,0.136,-2.492,-0.257,-0.059,1.409,-3.566,-1.735,0.705,3.929,0.705,3.929
18.881,2.104,-0.518,1.077,4.939,-3.384,-0.038,55.764,-44.289,0.199,0.040,0.109,0.081,-0.086,0.128,-2.489,-0.249,-0.055,1.388,-3.566,-1.735,0.705,3.929,0.705,3.929
18.908,0.775,0.098,-0.936,4.960,-3.388,-0.016,55.962,-44.424,0.198,-0.089,-0.166,0.158,-0.084,0.125,-2.488,-0.247,-0.040,1.308,-3.566,-1.735,0.705,3.929,0.705,3.929
18.935,0.788,0.224,-0.401,4.972,-3.389,-0.008,56.062,-44.492,0.198,-0.391,-0.177,0.132,-0.083,0.122,-2.487,-0.234,-0.044,1.318,-3.566,-1.735,0.705,3.929,0.705,3.929
18.962,0.965,0.008,-0.047,4.984,-3.391,-0.002,56.161,-44.560,0.198,-0.489,-0.035,0.123,-0.084,0.116,-2.484,-0.221,-0.047,1.310,-3.566,-1.735,0.705,3.929,0.705,3.929
18.987,0.691,-0.036,-0.027,4.997,-3.392,0.003,56.261,-44.627,0.198,-0.329,-0.040,0.170,-0.086,0.113,-2.482,-0.207,-0.044,1.306,-3.566,-1.735,0.705,3.929,0.705,3.929
19.013,0.194,-0.259,-0.866,5.021,-3.394,0.011,56.456,-44.760,0.198,-0.217,0.013,0.170,-0.088,0.110,-2.480,-0.192,-0.044,1.337,-3.566,-1.735,0.705,3.929,0.705,3.929
19.040,0.227,-0.567,-1.139,5.033,-3.396,0.011,56.567,-44.834,0.198,-0.083,0.200,0.161,-0.092,0.107,-2.476,-0.185,-0.044,1.327,-3.566,-1.735,0.705,3.929,0.705,3.929
19.069,0.014,-0.751,-1.361,5.052,-3.403,0.005,56.759,-44.964,0.198,0.031,0.176,0.189,-0.094,0.106,-2.473,-0.183,-0.032,1.340,-3.566,-1.735,0.705,3.929,0.705,3.929
19.095,-0.273,-0.697,-1.463,5.060,-3.409,-0.003,56.865,-45.035,0.198,0.140,0.046,0.202,-0.096,0.105,-2.471,-0.192,-0.028,1.294,-3.566,-1.735,0.705,3.929,0.705,3.929
19.122,-0.369,-0.708,-1.152,5.067,-3.415,-0.012,56.966,-45.103,0.198,0.206,-0.121,0.090,-0.098,0.104,-2.466,-0.191,-0.030,1.279,-3.566,-1.735,0.705,3.929,0.705,3.929
19.148,-0.144,-0.880,-1.001,5.077,-3.429,-0.033,57.169,-45.240,0.197,0.197,-0.053,0.035,-0.098,0.103,-2.463,-0.201,-0.032,1.245,-3.566,-1.735,0.705,3.929,0.705,3.929
19.175,-0.013,-0.947,-0.910,5.081,-3.438,-0.045,57.271,-45.309,0.197,0.156,0.004,0.020,-0.098,0.102,-2.461,-0.211,-0.030,1.159,-3.566,-1.735,0.705,3.929,0.705,3.929
19.205,-0.148,-0.908,-0.797,5.085,-3.448,-0.057,57.372,-45.378,0.196,0.039,0.035,0.033,-0.097,0.100,-2.457,-0.214,-0.030,1.154,-3.566,-1.735,0.705,3.929,0.705,3.929
19.232,0.313,-1.087,0.214,5.090,-3.470,-0.081,57.576,-45.516,0.193,-0.064,0.147,0.020,-0.097,0.100,-2.455,-0.222,-0.025,1.092,-3.566,-1.735,0.705,3.929,0.705,3.929
19.259,0.388,-0.932,1.092,5.093,-3.482,-0.090,57.678,-45.586,0.191,0.126,0.068,0.210,-0.096,0.100,-2.452,-0.222,-0.016,1.060,-3.566,-1.735,0.705,3.929,0.705,3.929
19.287,-0.120,-0.723,1.219,5.096,-3.495,-0.096,57.779,-45.655,0.189,0.359,-0.136,0.258,-0.095,0.100,-2.450,-0.222,-0.013,1.072,-3.566,-1.735,0.705,3.929,0.705,3.929
19.314,-0.699,-1.065,0.412,5.100,-3.521,-0.101,57.983,-45.796,0.185,0.384,-0.230,0.235,-0.094,0.100,-2.447,-0.241,-0.021,1.060,-3.566,-1.735,0.705,3.929,0.705,3.929
19.342,-0.551,-0.702,0.278,5.099,-3.539,-0.102,58.121,-45.891,0.183,0.049,-0.249,0.130,-0.090,0.098,-2.442,-0.257,-0.028,1.056,-3.949,-2.056,0.950,4.366,0.950,4.366
19.374,-1.111,1.155,1.328,5.093,-3.557,-0.102,58.284,-46.004,0.179,-0.441,-0.762,-0.079,-0.089,0.097,-2.440,-0.253,-0.053,1.119,-3.949,-2.056,0.950,4.366,0.950,4.366
19.404,0.938,0.702,3.819,5.089,-3.563,-0.095,58.391,-46.079,0.177,-1.045,0.439,-0.290,-0.091,0.090,-2.437,-0.236,-0.069,1.116,-3.949,-2.056,0.950,4.366,0.950,4.366
19.432,0.971,-0.148,2.344,5.089,-3.572,-0.064,58.595,-46.222,0.174,-0.139,0.682,0.189,-0.094,0.089,-2.436,-0.185,-0.053,1.232,-3.949,-2.056,0.950,4.366,0.950,4.366
19.458,-0.338,0.225,0.347,5.092,-3.576,-0.043,58.701,-46.297,0.173,0.690,-0.414,0.374,-0.098,0.087,-2.434,-0.190,-0.047,1.117,-3.949,-2.056,0.950,4.366,0.950,4.366
19.485,-1.323,1.183,-0.661,5.092,-3.578,-0.027,58.798,-46.365,0.172,0.365,-0.425,0.222,-0.098,0.086,-2.431,-0.203,-0.052,1.060,-3.949,-2.056,0.950,4.366,0.950,4.366
19.513,-0.518,0.672,-0.799,5.087,-3.575,-0.001,58.997,-46.504,0.172,-0.119,0.040,-0.042,-0.098,0.084,-2.429,-0.217,-0.085,1.100,-3.949,-2.056,0.950,4.366,0.950,4.366
19.542,0.554,-0.253,-0.736,5.083,-3.572,0.008,59.109,-46.583,0.172,-0.871,1.327,-0.194,-0.100,0.084,-2.426,-0.209,-0.071,1.131,-3.949,-2.056,0.950,4.366,0.950,4.366
19.568,0.865,-0.946,-0.017,5.083,-3.571,0.022,59.302,-46.719,0.172,-0.556,1.003,-0.046,-0.103,0.087,-2.425,-0.193,-0.047,1.118,-3.949,-2.056,0.950,4.366,0.950,4.366
19.594,0.112,-0.705,-0.319,5.085,-3.574,0.029,59.408,-46.794,0.173,0.027,0.331,0.149,-0.107,0.092,-2.424,-0.173,0.002,1.062,-3.949,-2.056,0.950,4.366,0.950,4.366
19.623,-0.550,-0.353,-2.362,5.087,-3.577,0.032,59.510,-46.865,0.174,0.484,-0.277,0.194,-0.111,0.100,-2.422,-0.190,0.003,0.971,-3.949,-2.056,0.950,4.366,0.950,4.366
19.648,-0.688,-0.193,-2.337,5.084,-3.584,0.022,59.714,-47.009,0.175,0.039,0.197,0.143,-0.111,0.103,-2.421,-0.218,-0.009,0.919,-3.949,-2.056,0.950,4.366,0.950,4.366
19.675,-0.128,-0.361,-1.297,5.081,-3.587,0.011,59.815,-47.080,0.175,-0.316,0.661,0.078,-0.112,0.106,-2.419,-0.214,-0.001,0.949,-3.949,-2.056,0.950,4.366,0.950,4.366
19.703,-0.145,-0.199,-0.748,5.078,-3.591,-0.000,59.917,-47.152,0.175,0.021,0.395,0.215,-0.115,0.116,-2.416,-0.210,0.015,0.975,-3.949,-2.056,0.950,4.366,0.950,4.366
19.728,-0.776,0.014,-1.632,5.071,-3.599,-0.025,60.120,-47.296,0.175,0.468,-0.247,0.219,-0.115,0.121,-2.414,-0.222,0.020,0.950,-3.949,-2.056,0.950,4.366,0.950,4.366
19.754,-0.994,-0.005,-1.513,5.066,-3.602,-0.039,60.216,-47.364,0.174,0.426,-0.309,0.230,-0.115,0.124,-2.411,-0.232,0.013,0.964,-3.949,-2.056,0.950,4.366,0.950,4.366
19.779,-0.917,-0.016,-0.786,5.059,-3.605,-0.056,60.322,-47.440,0.173,0.075,-0.031,0.203,-0.113,0.129,-2.406,-0.246,0.001,0.988,-3.949,-2.056,0.950,4.366,0.950,4.366
19.806,-0.664,-0.270,0.063,5.051,-3.608,-0.071,60.429,-47.516,0.172,0.050,0.086,0.210,-0.112,0.131,-2.403,-0.249,-0.003,1.084,-3.949,-2.056,0.950,4.366,0.950,4.366
19.832,-0.616,-0.547,1.254,5.035,-3.615,-0.093,60.625,-47.656,0.168,0.216,0.088,0.277,-0.111,0.134,-2.400,-0.256,-0.003,1.111,-4.318,-2.394,1.189,4.805,1.189,4.805
19.860,-0.824,-0.578,0.897,5.026,-3.620,-0.099,60.726,-47.729,0.167,0.677,-0.202,0.290,-0.107,0.137,-2.393,-0.270,-0.007,1.119,-4.318,-2.394,1.189,4.805,1.189,4.805
19.886,-0.949,-0.739,0.679,5.015,-3.626,-0.103,60.836,-47.809,0.164,0.649,-0.291,0.237,-0.103,0.138,-2.389,-0.282,-0.012,1.153,-4.318,-2.394,1.189,4.805,1.189,4.805
19.913,-0.845,0.166,0.513,4.995,-3.638,-0.106,61.027,-47.947,0.160,0.489,-0.316,0.193,-0.098,0.138,-2.386,-0.306,-0.028,1.141,-4.318,-2.394,1.189,4.805,1.189,4.805
19.939,-0.940,1.096,1.000,4.983,-3.643,-0.105,61.126,-48.019,0.158,-0.398,-0.665,-0.213,-0.089,0.136,-2.379,-0.310,-0.050,1.175,-4.318,-2.394,1.189,4.805,1.189,4.805
19.964,0.453,1.293,2.608,4.972,-3.644,-0.101,61.226,-48.092,0.156,-0.793,-0.270,-0.512,-0.087,0.133,-2.376,-0.301,-0.065,1.227,-4.318,-2.394,1.189,4.805,1.189,4.805
19.991,3.046,-0.618,2.967,4.963,-3.645,-0.077,61.425,-48.238,0.153,-0.670,0.205,-0.326,-0.086,0.131,-2.375,-0.255,-0.062,1.364,-4.318,-2.394,1.189,4.805,1.189,4.805
20.016,2.161,-0.687,1.088,4.967,-3.647,-0.060,61.524,-48.311,0.151,-0.128,0.330,0.026,-0.086,0.129,-2.375,-0.239,-0.040,1.407,-4.318,-2.394,1.189,4.805,1.189,4.805
20.046,1.033,-0.118,-0.886,4.975,-3.650,-0.043,61.628,-48.388,0.150,0.040,-0.244,0.211,-0.086,0.127,-2.372,-0.238,-0.037,1.388,-4.318,-2.394,1.189,4.805,1.189,4.805
20.073,1.584,-0.071,0.032,4.993,-3.654,-0.019,61.823,-48.530,0.149,-0.134,-0.249,0.166,-0.086,0.125,-2.371,-0.231,-0.041,1.448,-4.318,-2.394,1.189,4.805,1.189,4.805
20.101,1.177,0.163,0.009,5.005,-3.656,-0.008,61.923,-48.603,0.149,-0.011,-0.156,0.340,-0.086,0.121,-2.367,-0.221,-0.041,1.493,-4.318,-2.394,1.189,4.805,1.189,4.805
20.128,0.272,0.435,-0.929,5.030,-3.657,0.007,62.123,-48.749,0.149,0.032,-0.077,0.301,-0.086,0.118,-2.364,-0.219,-0.046,1.518,-4.318,-2.394,1.189,4.805,1.189,4.805
20.154,0.518,0.086,-1.309,5.042,-3.657,0.011,62.224,-48.823,0.149,-0.017,0.010,0.178,-0.086,0.116,-2.361,-0.215,-0.052,1.536,-4.318,-2.394,1.189,4.805,1.189,4.805
20.181,0.632,-0.232,-1.407,5.053,-3.657,0.011,62.320,-48.892,0.149,-0.072,0.200,0.155,-0.086,0.113,-2.356,-0.213,-0.045,1.547,-4.318,-2.394,1.189,4.805,1.189,4.805
20.209,0.004,-0.247,-1.695,5.075,-3.658,0.004,62.523,-49.038,0.149,0.033,0.208,0.206,-0.087,0.113,-2.353,-0.214,-0.036,1.523,-4.318,-2.394,1.189,4.805,1.189,4.805
20.234,-0.346,-0.288,-2.092,5.085,-3.659,-0.005,62.629,-49.115,0.149,0.139,0.120,0.203,-0.087,0.112,-2.350,-0.214,-0.034,1.519,-4.318,-2.394,1.189,4.805,1.189,4.805
20.263,-0.356,-0.395,-2.061,5.093,-3.661,-0.017,62.731,-49.188,0.149,0.024,0.007,0.078,-0.086,0.112,-2.343,-0.225,-0.032,1.509,-4.318,-2.394,1.189,4.805,1.189,4.805
20.290,-0.255,-0.606,-1.402,5.104,-3.667,-0.047,62.935,-49.335,0.148,-0.032,0.045,0.040,-0.086,0.112,-2.341,-0.232,-0.029,1.498,-4.318,-2.394,1.189,4.805,1.189,4.805
20.315,-0.153,-0.882,-1.357,5.108,-3.671,-0.064,63.037,-49.408,0.147,-0.040,0.075,0.018,-0.086,0.112,-2.338,-0.230,-0.028,1.537,-4.318,-2.394,1.189,4.805,1.189,4.805
20.342,-0.049,-0.949,-1.143,5.113,-3.679,-0.088,63.175,-49.507,0.145,-0.055,-0.038,0.076,-0.086,0.112,-2.333,-0.236,-0.020,1.500,-4.664,-2.755,1.205,5.304,1.205,5.304
20.368,-0.196,-1.059,-0.187,5.117,-3.692,-0.116,63.339,-49.625,0.141,-0.044,-0.060,0.078,-0.086,0.112,-2.331,-0.234,-0.020,1.543,-4.664,-2.755,1.205,5.304,1.205,5.304
20.398,-0.096,-1.018,0.223,5.119,-3.702,-0.132,63.446,-49.703,0.139,-0.022,-0.006,0.139,-0.087,0.112,-2.327,-0.238,-0.018,1.550,-4.664,-2.755,1.205,5.304,1.205,5.304
20.428,-0.328,-0.534,1.531,5.121,-3.724,-0.153,63.651,-49.852,0.133,0.051,-0.122,0.188,-0.087,0.112,-2.325,-0.241,-0.016,1.533,-4.664,-2.755,1.205,5.304,1.205,5.304
20.456,-0.512,-0.489,1.581,5.121,-3.735,-0.158,63.753,-49.926,0.130,0.215,-0.249,0.209,-0.087,0.112,-2.323,-0.247,-0.024,1.539,-4.664,-2.755,1.205,5.304,1.205,5.304
20.485,-0.594,-0.880,1.114,5.119,-3.746,-0.160,63.856,-50.001,0.127,0.509,-0.079,0.189,-0.085,0.109,-2.317,-0.253,-0.030,1.515,-4.664,-2.755,1.205,5.304,1.205,5.304
20.513,-0.994,0.086,-0.609,5.114,-3.770,-0.160,64.061,-50.151,0.120,0.508,-0.134,0.138,-0.082,0.108,-2.314,-0.281,-0.033,1.474,-4.664,-2.755,1.205,5.304,1.205,5.304
20.542,-0.989,0.671,0.440,5.108,-3.780,-0.161,64.163,-50.227,0.117,-0.842,-0.799,-0.375,-0.078,0.103,-2.310,-0.289,-0.052,1.457,-4.664,-2.755,1.205,5.304,1.205,5.304
20.571,2.464,-0.343,4.448,5.102,-3.794,-0.150,64.367,-50.378,0.111,-1.262,-0.071,-0.512,-0.079,0.099,-2.309,-0.245,-0.065,1.536,-4.664,-2.755,1.205,5.304,1.205,5.304
20.601,2.565,-0.684,3.724,5.106,-3.800,-0.134,64.464,-50.450,0.108,0.032,0.384,0.249,-0.084,0.094,-2.309,-0.223,-0.057,1.582,-4.664,-2.755,1.205,5.304,1.205,5.304
20.631,0.154,0.568,-0.430,5.122,-3.814,-0.093,64.674,-50.607,0.104,0.611,-0.170,0.409,-0.087,0.092,-2.308,-0.216,-0.039,1.566,-4.664,-2.755,1.205,5.304,1.205,5.304
20.661,-0.419,1.442,-0.385,5.129,-3.817,-0.076,64.776,-50.683,0.102,-0.177,-0.081,0.184,-0.089,0.088,-2.305,-0.223,-0.061,1.551,-4.664,-2.755,1.205,5.304,1.205,5.304
20.689,0.070,0.423,0.152,5.139,-3.816,-0.047,64.976,-50.832,0.099,-0.264,0.305,0.067,-0.090,0.086,-2.303,-0.214,-0.068,1.629,-4.664,-2.755,1.205,5.304,1.205,5.304
20.719,0.126,-0.229,-1.016,5.144,-3.815,-0.034,65.084,-50.912,0.099,0.140,0.421,-0.005,-0.093,0.085,-2.300,-0.211,-0.060,1.613,-4.664,-2.755,1.205,5.304,1.205,5.304
20.745,0.085,-0.561,-1.943,5.148,-3.814,-0.026,65.187,-50.988,0.098,0.197,0.312,0.002,-0.094,0.086,-2.298,-0.218,-0.045,1.599,-4.664,-2.755,1.205,5.304,1.205,5.304
20.772,-0.363,-0.353,-2.190,5.156,-3.817,-0.025,65.388,-51.137,0.097,0.125,0.147,0.056,-0.094,0.087,-2.297,-0.235,-0.032,1.527,-4.664,-2.755,1.205,5.304,1.205,5.304
20.801,-0.520,-0.147,-1.791,5.158,-3.819,-0.031,65.491,-51.213,0.097,0.020,0.064,0.045,-0.094,0.090,-2.294,-0.236,-0.030,1.509,-4.664,-2.755,1.205,5.304,1.205,5.304
20.826,-0.478,-0.208,-1.570,5.159,-3.821,-0.040,65.605,-51.297,0.096,0.020,0.043,0.017,-0.094,0.091,-2.293,-0.244,-0.030,1.497,-4.995,-3.130,1.246,5.803,1.246,5.803
20.854,-0.148,-0.278,-1.314,5.158,-3.826,-0.063,65.806,-51.446,0.094,0.004,-0.005,-0.005,-0.094,0.092,-2.292,-0.250,-0.026,1.466,-4.995,-3.130,1.246,5.803,1.246,5.803
20.883,-0.059,-0.171,-0.960,5.157,-3.829,-0.076,65.909,-51.523,0.092,-0.122,-0.075,0.042,-0.095,0.094,-2.290,-0.250,-0.027,1.466,-4.995,-3.130,1.246,5.803,1.246,5.803
20.908,-0.167,-0.049,0.206,5.156,-3.835,-0.102,66.115,-51.676,0.089,-0.151,-0.053,0.092,-0.095,0.094,-2.289,-0.247,-0.030,1.483,-4.995,-3.130,1.246,5.803,1.246,5.803
20.934,-0.383,-0.087,0.571,5.154,-3.838,-0.112,66.218,-51.753,0.087,-0.098,0.016,0.155,-0.096,0.095,-2.288,-0.246,-0.033,1.459,-4.995,-3.130,1.246,5.803,1.246,5.803
20.962,-0.779,-0.306,0.207,5.152,-3.841,-0.121,66.321,-51.830,0.084,0.217,0.119,0.208,-0.097,0.096,-2.285,-0.241,-0.033,1.485,-4.995,-3.130,1.246,5.803,1.246,5.803
20.990,-0.957,-0.857,-0.072,5.142,-3.849,-0.136,66.527,-51.984,0.079,0.154,0.133,0.195,-0.097,0.097,-2.283,-0.257,-0.031,1.458,-4.995,-3.130,1.246,5.803,1.246,5.803
21.019,-0.757,-0.763,0.943,5.136,-3.854,-0.142,66.625,-52.057,0.077,0.104,0.065,0.231,-0.096,0.099,-2.279,-0.266,-0.029,1.457,-4.995,-3.130,1.246,5.803,1.246,5.803
21.046,-0.690,-0.616,1.712,5.128,-3.861,-0.145,66.733,-52.138,0.074,0.247,0.028,0.235,-0.095,0.100,-2.276,-0.264,-0.029,1.470,-4.995,-3.130,1.246,5.803,1.246,5.803
21.073,-0.448,-0.779,1.255,5.112,-3.876,-0.141,66.938,-52.292,0.068,0.379,0.040,0.241,-0.094,0.101,-2.273,-0.274,-0.030,1.469,-4.995,-3.130,1.246,5.803,1.246,5.803
21.103,-0.432,-0.208,0.431,5.104,-3.884,-0.136,67.040,-52.370,0.065,0.184,-0.233,0.188,-0.090,0.103,-2.267,-0.286,-0.032,1.429,-4.995,-3.130,1.246,5.803,1.246,5.803
21.135,0.997,-0.205,1.940,5.089,-3.898,-0.123,67.244,-52.526,0.060,-0.197,-0.211,-0.033,-0.087,0.103,-2.264,-0.281,-0.038,1.443,-4.995,-3.130,1.246,5.803,1.246,5.803
21.161,1.976,-0.605,2.273,5.086,-3.905,-0.111,67.345,-52.604,0.057,-0.035,0.181,0.127,-0.085,0.103,-2.259,-0.273,-0.039,1.450,-4.995,-3.130,1.246,5.803,1.246,5.803
21.185,1.561,-0.510,1.612,5.087,-3.912,-0.097,67.447,-52.682,0.055,0.233,-0.125,0.259,-0.084,0.103,-2.257,-0.260,-0.027,1.449,-4.995,-3.130,1.246,5.803,1.246,5.803
21.209,1.002,0.290,0.275,5.095,-3.924,-0.068,67.646,-52.835,0.052,0.205,-0.252,0.239,-0.083,0.103,-2.254,-0.257,-0.030,1.464,-4.995,-3.130,1.246,5.803,1.246,5.803
21.236,1.147,0.114,0.658,5.102,-3.930,-0.052,67.763,-52.925,0.051,-0.015,-0.068,0.198,-0.081,0.103,-2.251,-0.256,-0.035,1.448,-4.995,-3.130,1.246,5.803,1.246,5.803
21.261,0.917,0.130,0.676,5.110,-3.933,-0.039,67.855,-52.996,0.050,0.073,0.038,0.226,-0.079,0.102,-2.245,-0.247,-0.033,1.456,-4.995,-3.130,1.246,5.803,1.246,5.803
21.287,0.498,0.348,-0.360,5.118,-3.936,-0.026,67.957,-53.074,0.049,0.088,-0.017,0.155,-0.078,0.102,-2.241,-0.243,-0.033,1.445,-4.995,-3.130,1.246,5.803,1.246,5.803
21.312,0.426,0.179,-1.105,5.136,-3.940,-0.008,68.162,-53.232,0.049,-0.020,0.064,0.105,-0.077,0.102,-2.238,-0.239,-0.034,1.431,-4.995,-3.130,1.246,5.803,1.246,5.803
21.341,0.326,0.022,-1.254,5.147,-3.941,-0.003,68.301,-53.338,0.049,-0.038,0.261,0.125,-0.075,0.103,-2.232,-0.236,-0.028,1.443,-5.303,-3.524,1.316,6.298,1.316,6.298
21.371,-0.122,-0.171,-2.012,5.159,-3.943,-0.005,68.466,-53.465,0.048,0.054,0.150,0.122,-0.075,0.104,-2.229,-0.239,-0.020,1.441,-5.303,-3.524,1.316,6.298,1.316,6.298
21.396,-0.242,-0.155,-1.941,5.166,-3.944,-0.012,68.574,-53.547,0.048,0.081,-0.038,0.099,-0.074,0.105,-2.226,-0.238,-0.020,1.439,-5.303,-3.524,1.316,6.298,1.316,6.298
21.423,-0.226,-0.126,-1.217,5.171,-3.946,-0.020,68.672,-53.622,0.048,0.031,-0.170,0.075,-0.073,0.106,-2.221,-0.243,-0.022,1.429,-5.303,-3.524,1.316,6.298,1.316,6.298
21.450,-0.246,-0.491,-0.831,5.178,-3.950,-0.041,68.879,-53.780,0.047,0.162,-0.162,0.067,-0.072,0.106,-2.218,-0.248,-0.028,1.412,-5.303,-3.524,1.316,6.298,1.316,6.298
