time,acc_x,acc_y,acc_z,vel_x,vel_y,vel_z,pos_x,pos_y,pos_z,rad_vel_x,rad_vel_y,rad_vel_z,rad_gyro_x,rad_gyro_y,rad_gyro_z,rad_mag_x,rad_mag_y,rad_mag_z
0.073,0.202,0.003,-0.360,0.000,0.000,0.000,0.000,0.000,0.000,0.000,0.000,0.000,-0.000,-0.000,-0.000,-0.000,-0.000,-0.000,0.000,0.000,0.000,0.000,0.000,0.000
0.303,-0.005,0.441,-0.022,0.000,0.000,0.000,0.000,0.000,0.000,-0.004,-0.001,-0.009,-0.164,0.005,1.323,-0.164,0.005,1.323,0.000,0.000,0.000,0.000,0.000,0.000
0.371,-0.157,0.244,0.312,0.000,0.000,0.000,0.000,0.000,0.000,-0.004,-0.001,-0.009,-0.163,0.013,1.320,-0.163,0.013,1.320,0.000,0.000,0.000,0.000,0.000,0.000
0.426,-0.100,0.063,0.126,0.000,0.000,0.000,0.000,0.000,0.000,-0.004,-0.001,-0.009,-0.162,0.014,1.322,-0.162,0.014,1.322,0.000,0.000,0.000,0.000,0.000,0.000
0.482,-0.208,0.017,0.092,0.000,0.000,0.000,0.000,0.000,0.000,0.130,0.086,-0.078,-0.158,0.019,1.324,-0.158,0.019,1.324,0.000,0.000,0.000,0.000,0.000,0.000
0.528,-0.065,0.321,-0.425,0.000,0.000,0.000,0.000,0.000,0.000,0.081,0.016,-0.111,-0.164,0.025,1.311,-0.164,0.025,1.311,0.000,0.000,0.000,0.000,0.000,0.000
0.569,-0.193,0.153,0.014,0.000,0.000,0.000,0.000,0.000,0.000,-0.117,0.081,-0.084,-0.164,0.030,1.307,-0.164,0.030,1.307,0.000,0.000,0.000,0.000,0.000,0.000
0.609,-0.251,0.201,0.271,0.000,0.000,0.000,0.000,0.000,0.000,-0.140,-0.051,-0.104,-0.156,0.034,1.310,-0.156,0.034,1.310,0.000,0.000,0.000,0.000,0.000,0.000
0.649,-0.147,0.273,0.436,0.000,0.000,0.000,0.000,0.000,0.000,-0.160,0.053,-0.070,-0.149,0.037,1.320,-0.149,0.037,1.320,0.000,0.000,0.000,0.000,0.000,0.000
0.682,0.006,0.153,0.239,0.000,0.000,0.000,0.000,0.000,0.000,-0.057,-0.033,0.023,-0.144,0.040,1.327,-0.144,0.040,1.327,0.000,0.000,0.000,0.000,0.000,0.000
0.719,0.022,0.175,0.347,0.000,0.000,0.000,0.000,0.000,0.000,-0.046,-0.051,0.028,-0.142,0.040,1.324,-0.142,0.040,1.324,0.000,0.000,0.000,0.000,0.000,0.000
0.752,0.004,0.024,0.511,0.000,0.000,0.000,0.000,0.000,0.000,-0.039,-0.049,0.054,-0.140,0.038,1.326,-0.140,0.038,1.326,0.000,0.000,0.000,0.000,0.000,0.000
0.786,0.127,0.084,0.132,0.000,0.000,0.000,0.000,0.000,0.000,0.130,-0.186,0.037,-0.141,0.036,1.321,-0.141,0.036,1.321,0.000,0.000,0.000,0.000,0.000,0.000
0.815,0.142,-0.030,0.112,0.000,0.000,0.000,0.000,0.000,0.000,0.130,-0.199,0.031,-0.148,0.027,1.321,-0.148,0.027,1.321,0.000,0.000,0.000,0.000,0.000,0.000
0.848,0.041,0.076,0.200,0.000,0.000,0.000,0.000,0.000,0.000,0.000,-0.017,-0.013,-0.150,0.025,1.323,-0.150,0.025,1.323,0.000,0.000,0.000,0.000,0.000,0.000
0.878,-0.050,-0.076,0.390,0.000,0.000,0.000,0.000,0.000,0.000,-0.031,0.002,-0.031,-0.149,0.025,1.326,-0.149,0.025,1.326,0.000,0.000,0.000,0.000,0.000,0.000
0.909,-0.046,0.027,0.283,0.000,0.000,0.000,0.000,0.000,0.000,0.040,-0.059,-0.084,-0.148,0.024,1.326,-0.148,0.024,1.326,0.000,0.000,0.000,0.000,0.000,0.000
0.938,-0.028,0.134,0.000,0.000,0.000,0.000,0.000,0.000,0.000,0.040,-0.035,-0.095,-0.149,0.022,1.325,-0.149,0.022,1.325,0.121,0.485,0.121,0.485,0.121,0.485
0.968,0.040,0.090,-0.028,0.000,0.000,0.000,0.000,0.000,0.000,-0.022,-0.024,-0.057,-0.150,0.023,1.322,-0.150,0.023,1.322,0.121,0.485,0.121,0.485,0.121,0.485
0.995,-0.027,-0.040,0.185,0.000,0.000,0.000,0.000,0.000,0.000,-0.026,-0.048,-0.068,-0.149,0.022,1.323,-0.149,0.022,1.323,0.121,0.485,0.121,0.485,0.121,0.485
1.023,-0.053,0.073,0.173,0.000,0.000,0.000,0.000,0.000,0.000,0.002,-0.051,-0.095,-0.149,0.021,1.330,-0.149,0.021,1.330,0.121,0.485,0.121,0.485,0.121,0.485
1.049,-0.036,0.047,0.115,0.000,0.000,0.000,0.000,0.000,0.000,-0.007,-0.016,-0.067,-0.149,0.021,1.330,-0.148,0.021,1.333,0.121,0.485,0.121,0.485,0.121,0.485
1.074,-0.035,-0.017,0.064,0.000,0.000,0.000,0.000,0.000,0.000,-0.010,0.010,-0.059,-0.149,0.021,1.330,-0.148,0.021,1.337,0.121,0.485,0.121,0.485,0.121,0.485
1.101,-0.019,-0.014,0.017,0.000,0.000,0.000,0.000,0.000,0.000,0.013,-0.043,-0.094,-0.149,0.021,1.330,-0.148,0.021,1.330,0.121,0.485,0.121,0.485,0.121,0.485
1.127,-0.013,0.018,-0.081,0.000,0.000,0.000,0.000,0.000,0.000,-0.005,-0.044,-0.120,-0.149,0.021,1.330,-0.148,0.021,1.332,0.121,0.485,0.121,0.485,0.121,0.485
1.154,-0.093,0.149,-0.004,0.000,0.000,0.000,0.000,0.000,0.000,-0.043,-0.021,-0.150,-0.149,0.021,1.330,-0.146,0.022,1.331,0.121,0.485,0.121,0.485,0.121,0.485
1.186,-0.128,0.181,-0.208,0.000,0.000,0.000,0.000,0.000,0.000,-0.083,-0.004,-0.175,-0.149,0.021,1.330,-0.145,0.023,1.327,0.121,0.485,0.121,0.485,0.121,0.485
1.218,-0.167,0.209,0.127,0.000,0.000,0.000,0.000,0.000,0.000,-0.136,-0.006,-0.176,-0.149,0.021,1.330,-0.140,0.027,1.328,0.121,0.485,0.121,0.485,0.121,0.485
1.251,-0.213,0.208,0.279,0.000,0.000,0.000,0.000,0.000,0.000,-0.156,-0.040,-0.177,-0.149,0.021,1.330,-0.132,0.029,1.333,0.121,0.485,0.121,0.485,0.121,0.485
1.281,-0.195,0.101,0.373,0.000,0.000,0.000,0.000,0.000,0.000,-0.161,-0.050,-0.137,-0.149,0.021,1.330,-0.127,0.029,1.341,0.121,0.485,0.121,0.485,0.121,0.485
1.308,-0.066,0.120,0.448,0.000,0.000,0.000,0.000,0.000,0.000,-0.151,-0.016,-0.109,-0.149,0.021,1.330,-0.124,0.029,1.342,0.121,0.485,0.121,0.485,0.121,0.485
1.336,0.231,-0.117,0.167,0.000,0.000,0.000,0.000,0.000,0.000,-0.090,-0.049,-0.066,-0.149,0.021,1.330,-0.120,0.027,1.341,0.121,0.485,0.121,0.485,0.121,0.485
1.365,0.331,0.094,-0.060,0.000,0.000,0.000,0.000,0.000,0.000,0.005,-0.044,-0.083,-0.149,0.021,1.330,-0.123,0.026,1.337,0.121,0.485,0.121,0.485,0.121,0.485
1.392,0.477,0.162,-0.348,0.000,0.000,0.000,0.000,0.000,0.000,0.026,-0.002,-0.078,-0.149,0.021,1.330,-0.128,0.026,1.329,0.121,0.485,0.121,0.485,0.121,0.485
1.421,0.673,0.034,-0.399,0.000,0.000,0.000,0.000,0.000,0.000,0.038,0.005,-0.066,-0.149,0.021,1.330,-0.129,0.026,1.332,0.121,0.485,0.121,0.485,0.121,0.485
1.449,0.649,-0.096,-0.554,0.000,0.000,0.000,0.000,0.000,0.000,0.044,-0.033,-0.081,-0.149,0.021,1.330,-0.136,0.024,1.327,0.240,0.971,0.239,0.971,0.239,0.971
1.476,0.458,-0.036,-0.188,0.000,0.000,0.000,0.000,0.000,0.000,0.040,-0.130,-0.122,-0.149,0.021,1.330,-0.142,0.020,1.322,0.240,0.971,0.239,0.971,0.239,0.971
1.505,0.163,0.039,0.401,0.000,0.000,0.000,0.000,0.000,0.000,-0.127,-0.244,-0.247,-0.149,0.021,1.330,-0.141,0.017,1.321,0.240,0.971,0.239,0.971,0.239,0.971
1.532,0.256,-0.093,0.677,0.000,0.000,0.000,0.000,0.000,0.000,-0.006,-0.158,-0.158,-0.149,0.021,1.330,-0.139,0.010,1.323,0.240,0.971,0.239,0.971,0.239,0.971
1.558,0.497,-0.293,0.252,0.000,0.000,0.000,0.000,0.000,0.000,0.098,-0.147,-0.126,-0.149,0.021,1.330,-0.144,0.004,1.323,0.240,0.971,0.239,0.971,0.239,0.971
1.586,0.574,-0.768,0.595,0.000,0.000,0.000,0.000,0.000,0.000,-0.143,-0.263,-0.192,-0.149,0.021,1.330,-0.145,0.000,1.322,0.240,0.971,0.239,0.971,0.239,0.971
1.613,-0.038,-0.731,1.702,0.000,0.000,0.000,0.000,0.000,0.000,-0.299,-0.254,-0.247,-0.149,0.021,1.330,-0.136,-0.016,1.336,0.240,0.971,0.239,0.971,0.239,0.971
1.642,0.153,-0.434,1.283,0.000,0.000,0.000,0.000,0.000,0.000,-0.239,0.040,-0.189,-0.149,0.021,1.330,-0.131,-0.022,1.341,0.240,0.971,0.239,0.971,0.239,0.971
1.669,1.081,0.121,0.174,0.000,0.000,0.000,0.000,0.000,0.000,-0.148,0.142,-0.121,-0.149,0.021,1.330,-0.126,-0.020,1.346,0.240,0.971,0.239,0.971,0.239,0.971
1.700,1.385,-0.000,-0.122,0.000,0.000,0.000,0.000,0.000,0.000,-0.073,0.128,-0.066,-0.149,0.021,1.330,-0.132,-0.016,1.338,0.240,0.971,0.239,0.971,0.239,0.971
1.732,1.907,-0.479,-0.211,0.000,0.000,0.000,0.000,0.000,0.000,0.083,-0.081,-0.002,-0.149,0.021,1.330,-0.144,-0.026,1.331,0.240,0.971,0.239,0.971,0.239,0.971
1.761,2.008,-0.156,-0.473,0.000,0.000,0.000,0.000,0.000,0.000,0.206,-0.175,-0.153,-0.149,0.021,1.330,-0.165,-0.034,1.323,0.240,0.971,0.239,0.971,0.239,0.971
1.789,1.608,-0.296,-0.914,0.000,0.000,0.000,0.000,0.000,0.000,0.144,-0.197,-0.189,-0.149,0.021,1.330,-0.170,-0.037,1.323,0.240,0.971,0.239,0.971,0.239,0.971
1.816,1.198,-0.162,-0.473,0.000,0.000,0.000,0.000,0.000,0.000,0.032,-0.154,-0.236,-0.149,0.021,1.330,-0.186,-0.049,1.313,0.240,0.971,0.239,0.971,0.239,0.971
1.844,0.835,0.090,-0.448,0.000,0.000,0.000,0.000,0.000,0.000,-0.032,-0.103,-0.319,-0.149,0.021,1.330,-0.194,-0.052,1.302,0.240,0.971,0.239,0.971,0.239,0.971
1.872,0.479,0.344,0.096,0.000,0.000,0.000,0.000,0.000,0.000,-0.028,-0.071,-0.293,-0.149,0.021,1.330,-0.199,-0.050,1.299,0.240,0.971,0.239,0.971,0.239,0.971
1.898,0.557,0.098,0.303,0.000,0.000,0.000,0.000,0.000,0.000,-0.002,-0.119,-0.237,-0.149,0.021,1.330,-0.199,-0.052,1.295,0.240,0.971,0.239,0.971,0.239,0.971
1.925,0.603,-0.282,0.448,0.000,0.000,0.000,0.000,0.000,0.000,0.132,-0.243,-0.067,-0.149,0.021,1.330,-0.205,-0.059,1.293,0.360,1.456,0.375,1.452,0.375,1.452
1.951,0.682,-0.654,0.360,0.000,0.000,0.000,0.000,0.000,0.000,0.241,-0.221,-0.051,-0.149,0.021,1.330,-0.217,-0.075,1.294,0.360,1.456,0.375,1.452,0.375,1.452
1.977,0.652,-0.476,0.120,0.000,0.000,0.000,0.000,0.000,0.000,0.365,-0.231,-0.103,-0.149,0.021,1.330,-0.224,-0.079,1.291,0.360,1.456,0.375,1.452,0.375,1.452
2.003,0.382,-0.084,-0.198,0.000,0.000,0.000,0.000,0.000,0.000,0.491,-0.301,-0.299,-0.149,0.021,1.330,-0.237,-0.085,1.289,0.360,1.456,0.375,1.452,0.375,1.452
2.029,0.199,0.230,-0.519,0.000,0.000,-0.001,0.000,0.000,-0.000,0.445,-0.220,-0.323,-0.148,0.021,1.330,-0.247,-0.090,1.287,0.360,1.456,0.375,1.452,0.375,1.452
2.062,-0.268,0.141,0.267,0.001,0.002,-0.004,0.000,0.000,-0.000,0.092,0.005,-0.219,-0.146,0.020,1.328,-0.265,-0.090,1.275,0.360,1.456,0.375,1.452,0.375,1.452
2.089,-0.553,0.090,1.165,0.000,0.003,-0.004,0.000,0.000,-0.000,-0.028,0.021,-0.180,-0.144,0.019,1.326,-0.262,-0.086,1.278,0.360,1.456,0.375,1.452,0.375,1.452
2.115,-0.659,0.054,1.528,-0.005,0.006,0.004,-0.000,0.000,-0.000,0.023,-0.020,-0.126,-0.143,0.019,1.324,-0.256,-0.082,1.280,0.360,1.456,0.375,1.452,0.375,1.452
2.141,-0.292,-0.346,0.909,-0.008,0.007,0.011,-0.000,0.000,-0.000,0.352,0.165,0.167,-0.140,0.018,1.321,-0.259,-0.082,1.277,0.360,1.456,0.375,1.452,0.375,1.452
2.167,0.055,-0.403,-0.035,-0.012,0.007,0.019,-0.000,0.001,0.000,0.137,0.342,0.154,-0.138,0.019,1.321,-0.266,-0.084,1.276,0.360,1.456,0.375,1.452,0.375,1.452
2.193,-1.110,-0.338,1.120,-0.019,0.005,0.032,-0.001,0.001,0.001,-0.224,0.302,0.065,-0.136,0.020,1.320,-0.253,-0.072,1.278,0.360,1.456,0.375,1.452,0.375,1.452
2.219,-1.609,0.040,1.144,-0.026,0.003,0.040,-0.001,0.001,0.002,-0.418,0.155,-0.024,-0.135,0.021,1.320,-0.244,-0.068,1.287,0.360,1.456,0.375,1.452,0.375,1.452
2.245,-1.302,0.372,0.166,-0.035,0.002,0.049,-0.002,0.001,0.003,-0.020,0.121,0.018,-0.135,0.024,1.319,-0.228,-0.059,1.297,0.360,1.456,0.375,1.452,0.375,1.452
2.271,-1.029,0.225,-0.774,-0.056,0.002,0.061,-0.004,0.001,0.005,0.006,-0.002,0.024,-0.136,0.025,1.319,-0.218,-0.052,1.302,0.360,1.456,0.375,1.452,0.375,1.452
2.296,-1.477,-0.052,0.330,-0.068,0.003,0.065,-0.005,0.001,0.006,-0.227,-0.169,-0.010,-0.136,0.027,1.319,-0.214,-0.055,1.302,0.360,1.456,0.375,1.452,0.375,1.452
2.322,-1.462,-0.115,0.764,-0.082,0.003,0.070,-0.007,0.001,0.008,-0.368,-0.209,-0.043,-0.139,0.028,1.318,-0.193,-0.057,1.321,0.360,1.456,0.375,1.452,0.375,1.452
2.348,-1.232,-0.213,0.267,-0.098,0.003,0.075,-0.008,0.001,0.009,-0.181,-0.076,-0.040,-0.141,0.027,1.318,-0.185,-0.061,1.327,0.360,1.456,0.375,1.452,0.375,1.452
2.374,-0.400,0.302,-1.377,-0.129,0.003,0.081,-0.013,0.001,0.012,-0.081,0.061,-0.067,-0.143,0.027,1.318,-0.173,-0.060,1.337,0.360,1.456,0.375,1.452,0.375,1.452
2.401,-0.408,0.376,-1.135,-0.144,0.004,0.080,-0.016,0.001,0.014,-0.198,0.148,-0.106,-0.147,0.028,1.316,-0.168,-0.051,1.334,0.360,1.456,0.375,1.452,0.375,1.452
2.426,-0.222,0.314,-1.305,-0.158,0.005,0.076,-0.019,0.001,0.015,-0.198,0.148,-0.106,-0.147,0.028,1.316,-0.164,-0.048,1.333,0.485,1.940,0.491,1.938,0.491,1.938
2.455,0.454,0.449,-1.553,-0.181,0.009,0.062,-0.025,0.002,0.018,-0.092,0.092,-0.087,-0.152,0.029,1.315,-0.163,-0.039,1.332,0.485,1.940,0.491,1.938,0.491,1.938
2.481,0.640,0.497,-1.138,-0.190,0.012,0.051,-0.029,0.002,0.019,-0.209,-0.020,-0.090,-0.157,0.030,1.313,-0.169,-0.034,1.322,0.485,1.940,0.491,1.938,0.491,1.938
2.507,0.636,0.577,0.158,-0.196,0.016,0.041,-0.033,0.002,0.020,-0.263,-0.062,-0.075,-0.159,0.031,1.311,-0.164,-0.034,1.328,0.485,1.940,0.491,1.938,0.491,1.938
2.537,0.802,0.277,0.719,-0.204,0.026,0.024,-0.041,0.003,0.022,-0.206,-0.108,-0.027,-0.162,0.031,1.310,-0.162,-0.035,1.327,0.485,1.940,0.491,1.938,0.491,1.938
2.564,0.770,0.285,0.629,-0.205,0.031,0.020,-0.045,0.004,0.022,0.108,-0.127,-0.006,-0.168,0.031,1.308,-0.168,-0.037,1.317,0.485,1.940,0.491,1.938,0.491,1.938
2.589,0.659,0.063,0.813,-0.202,0.040,0.016,-0.053,0.005,0.023,0.231,-0.116,-0.007,-0.170,0.031,1.307,-0.181,-0.043,1.308,0.485,1.940,0.491,1.938,0.491,1.938
2.617,0.554,-0.210,1.112,-0.198,0.044,0.017,-0.057,0.006,0.023,0.313,-0.158,-0.011,-0.171,0.030,1.307,-0.187,-0.046,1.300,0.485,1.940,0.491,1.938,0.491,1.938
2.643,0.401,-0.194,1.207,-0.194,0.047,0.020,-0.061,0.007,0.023,0.407,-0.261,-0.082,-0.171,0.028,1.305,-0.197,-0.053,1.300,0.485,1.940,0.491,1.938,0.491,1.938
2.670,0.307,-0.044,0.967,-0.186,0.052,0.032,-0.069,0.009,0.024,0.419,-0.225,-0.115,-0.170,0.026,1.304,-0.216,-0.062,1.292,0.485,1.940,0.491,1.938,0.491,1.938
2.701,0.251,0.197,0.336,-0.181,0.054,0.041,-0.073,0.010,0.025,0.453,-0.068,-0.151,-0.165,0.022,1.302,-0.225,-0.065,1.297,0.485,1.940,0.491,1.938,0.491,1.938
2.728,0.185,0.553,0.278,-0.177,0.057,0.048,-0.076,0.011,0.026,0.390,-0.081,-0.186,-0.162,0.021,1.300,-0.237,-0.061,1.289,0.485,1.940,0.491,1.938,0.491,1.938
2.756,0.034,-0.051,-0.712,-0.169,0.063,0.061,-0.083,0.013,0.028,0.167,-0.170,-0.192,-0.158,0.019,1.299,-0.249,-0.065,1.284,0.485,1.940,0.491,1.938,0.491,1.938
2.785,-0.064,-1.200,-0.952,-0.166,0.065,0.065,-0.086,0.015,0.029,-0.980,-0.566,-0.487,-0.153,0.014,1.294,-0.246,-0.070,1.288,0.485,1.940,0.491,1.938,0.491,1.938
2.809,-2.845,-0.021,3.491,-0.170,0.064,0.083,-0.093,0.017,0.032,-1.422,-0.336,-0.621,-0.154,0.010,1.291,-0.180,-0.082,1.333,0.485,1.940,0.491,1.938,0.491,1.938
2.834,-1.775,0.219,2.001,-0.179,0.063,0.099,-0.096,0.018,0.034,-0.964,0.243,-0.420,-0.158,0.007,1.287,-0.149,-0.069,1.347,0.485,1.940,0.491,1.938,0.491,1.938
2.860,-0.520,-0.453,-0.069,-0.189,0.062,0.115,-0.100,0.020,0.036,-0.111,0.639,-0.097,-0.162,0.005,1.283,-0.147,-0.055,1.334,0.485,1.940,0.491,1.938,0.491,1.938
2.888,0.523,-1.158,-1.346,-0.198,0.060,0.129,-0.104,0.021,0.039,0.451,-0.178,0.011,-0.167,0.003,1.275,-0.158,-0.064,1.326,0.485,1.940,0.491,1.938,0.491,1.938
2.913,-0.078,-1.845,-0.348,-0.212,0.046,0.146,-0.112,0.023,0.044,0.092,-0.360,-0.171,-0.169,0.002,1.272,-0.163,-0.091,1.328,0.485,1.940,0.491,1.938,0.491,1.938
2.938,-0.681,-1.362,-0.072,-0.218,0.035,0.152,-0.117,0.024,0.047,-0.231,-0.243,-0.396,-0.170,0.000,1.269,-0.159,-0.095,1.331,0.485,1.940,0.491,1.938,0.491,1.938
2.964,-1.018,-0.574,-0.076,-0.226,0.023,0.157,-0.121,0.024,0.050,-0.404,0.266,-0.563,-0.174,-0.003,1.260,-0.142,-0.095,1.344,0.485,1.940,0.491,1.938,0.491,1.938
2.989,-0.761,0.386,-0.444,-0.244,0.002,0.165,-0.130,0.025,0.057,-0.321,0.423,-0.474,-0.177,-0.003,1.255,-0.123,-0.072,1.353,0.485,1.940,0.491,1.938,0.491,1.938
3.014,-0.306,0.485,-1.098,-0.254,-0.006,0.167,-0.135,0.025,0.060,-0.112,0.409,-0.323,-0.180,-0.003,1.249,-0.121,-0.063,1.351,0.485,1.940,0.491,1.938,0.491,1.938
3.039,0.379,0.309,-1.852,-0.263,-0.012,0.165,-0.141,0.025,0.063,0.155,0.310,-0.145,-0.182,-0.002,1.244,-0.129,-0.056,1.337,0.485,1.940,0.491,1.938,0.491,1.938
3.065,1.070,0.078,-2.604,-0.269,-0.017,0.159,-0.146,0.024,0.067,0.484,0.162,0.106,-0.185,0.002,1.234,-0.136,-0.051,1.329,0.485,1.940,0.491,1.938,0.491,1.938
3.090,1.553,-0.091,-2.765,-0.273,-0.027,0.133,-0.157,0.023,0.073,0.408,0.108,0.104,-0.185,0.003,1.230,-0.169,-0.057,1.298,0.485,1.940,0.491,1.938,0.491,1.938
3.116,0.647,-0.256,-1.510,-0.271,-0.031,0.114,-0.162,0.023,0.075,0.155,0.072,0.029,-0.184,0.005,1.227,-0.178,-0.062,1.297,0.485,1.940,0.491,1.938,0.491,1.938
3.141,0.219,-0.144,-0.654,-0.269,-0.036,0.096,-0.168,0.022,0.077,-0.246,-0.092,-0.187,-0.183,0.008,1.221,-0.177,-0.062,1.299,0.485,1.940,0.491,1.938,0.491,1.938
3.166,-0.141,-0.269,0.253,-0.266,-0.040,0.078,-0.173,0.021,0.079,-0.363,-0.161,-0.193,-0.184,0.010,1.218,-0.170,-0.065,1.307,0.485,1.940,0.491,1.938,0.491,1.938
3.192,-0.421,-0.522,1.959,-0.264,-0.050,0.054,-0.184,0.020,0.082,-0.407,-0.177,-0.144,-0.185,0.010,1.215,-0.151,-0.072,1.327,0.485,1.940,0.491,1.938,0.491,1.938
3.218,-0.121,-0.327,1.947,-0.264,-0.056,0.049,-0.189,0.019,0.083,-0.312,-0.116,-0.079,-0.186,0.010,1.212,-0.145,-0.074,1.324,0.485,1.940,0.491,1.938,0.491,1.938
3.245,0.363,-0.295,1.590,-0.263,-0.062,0.048,-0.194,0.017,0.084,0.197,0.150,0.120,-0.190,0.011,1.207,-0.146,-0.076,1.322,0.485,1.940,0.491,1.938,0.491,1.938
3.274,1.097,-0.589,1.000,-0.259,-0.074,0.055,-0.205,0.015,0.086,0.395,0.187,0.198,-0.191,0.011,1.205,-0.164,-0.078,1.311,0.485,1.940,0.491,1.938,0.491,1.938
3.307,1.004,-0.545,0.942,-0.254,-0.081,0.061,-0.210,0.013,0.087,0.632,0.120,0.144,-0.190,0.013,1.203,-0.175,-0.075,1.316,0.485,1.940,0.491,1.938,0.491,1.938
3.339,-0.196,-0.325,2.315,-0.241,-0.095,0.078,-0.220,0.010,0.089,0.637,-0.033,0.064,-0.187,0.014,1.202,-0.202,-0.080,1.316,0.485,1.940,0.491,1.938,0.491,1.938
3.373,0.262,0.079,-0.429,-0.232,-0.109,0.104,-0.229,0.006,0.093,1.035,-0.021,0.105,-0.179,0.015,1.201,-0.232,-0.083,1.298,0.485,1.940,0.491,1.938,0.491,1.938
3.405,0.905,-0.144,-1.368,-0.227,-0.115,0.115,-0.234,0.003,0.095,0.056,-0.315,-0.044,-0.167,0.015,1.201,-0.258,-0.092,1.292,0.485,1.940,0.491,1.938,0.491,1.938
3.430,-1.700,-0.570,2.490,-0.221,-0.128,0.136,-0.243,-0.001,0.100,-0.514,-0.226,-0.252,-0.160,0.015,1.201,-0.234,-0.099,1.306,0.485,1.940,0.491,1.938,0.491,1.938
3.457,-1.826,-0.401,1.532,-0.224,-0.135,0.151,-0.247,-0.004,0.103,-0.411,-0.101,-0.346,-0.158,0.014,1.200,-0.227,-0.099,1.307,0.485,1.940,0.491,1.938,0.491,1.938
3.482,-1.436,-0.414,0.037,-0.229,-0.143,0.167,-0.252,-0.007,0.107,0.132,-0.307,-0.330,-0.152,0.011,1.197,-0.213,-0.098,1.316,0.485,1.940,0.491,1.938,0.491,1.938
3.509,-1.402,-0.152,-0.479,-0.246,-0.158,0.192,-0.261,-0.013,0.114,-0.049,-0.255,-0.320,-0.149,0.009,1.195,-0.217,-0.103,1.313,0.485,1.940,0.491,1.938,0.491,1.938
3.534,-1.304,0.171,-0.863,-0.258,-0.165,0.201,-0.266,-0.016,0.117,-0.221,0.065,-0.303,-0.147,0.007,1.192,-0.199,-0.100,1.325,0.485,1.940,0.491,1.938,0.491,1.938
3.559,-1.044,0.288,-0.859,-0.270,-0.171,0.207,-0.271,-0.019,0.122,-0.318,0.376,-0.248,-0.145,0.006,1.189,-0.185,-0.085,1.326,0.485,1.940,0.491,1.938,0.491,1.938
3.588,-1.024,0.251,-0.561,-0.285,-0.175,0.211,-0.277,-0.023,0.126,-0.358,0.431,-0.172,-0.145,0.006,1.182,-0.177,-0.075,1.320,0.485,1.940,0.491,1.938,0.491,1.938
3.614,-0.426,0.443,-0.998,-0.313,-0.182,0.215,-0.289,-0.030,0.134,-0.173,0.325,-0.128,-0.146,0.008,1.179,-0.160,-0.053,1.320,0.485,1.940,0.491,1.938,0.491,1.938
3.639,0.076,0.460,-1.905,-0.326,-0.183,0.213,-0.296,-0.034,0.139,0.078,0.189,-0.086,-0.146,0.009,1.176,-0.165,-0.045,1.311,0.485,1.940,0.491,1.938,0.491,1.938
3.665,0.522,0.471,-2.322,-0.337,-0.184,0.207,-0.302,-0.038,0.143,0.122,-0.002,-0.075,-0.147,0.013,1.170,-0.170,-0.043,1.312,0.485,1.940,0.491,1.938,0.491,1.938
3.690,0.215,0.315,-0.953,-0.353,-0.182,0.187,-0.316,-0.045,0.151,-0.090,-0.015,-0.117,-0.147,0.015,1.167,-0.177,-0.041,1.312,0.485,1.940,0.491,1.938,0.491,1.938
3.716,0.235,0.381,-0.731,-0.359,-0.180,0.174,-0.323,-0.049,0.154,-0.198,0.049,-0.128,-0.147,0.016,1.165,-0.177,-0.037,1.315,0.485,1.940,0.491,1.938,0.491,1.938
3.742,0.730,0.694,-1.367,-0.364,-0.178,0.162,-0.330,-0.052,0.158,-0.093,0.268,-0.076,-0.149,0.019,1.160,-0.174,-0.033,1.316,0.485,1.940,0.491,1.938,0.491,1.938
3.768,0.764,0.908,-1.367,-0.367,-0.174,0.147,-0.338,-0.056,0.161,-0.127,0.303,-0.082,-0.149,0.021,1.157,-0.184,-0.022,1.299,0.485,1.940,0.491,1.938,0.491,1.938
3.795,0.595,0.871,-0.142,-0.368,-0.162,0.118,-0.352,-0.062,0.166,-0.187,0.269,-0.078,-0.151,0.024,1.155,-0.187,-0.004,1.285,0.485,1.940,0.491,1.938,0.491,1.938
3.832,0.453,0.007,1.229,-0.364,-0.147,0.095,-0.367,-0.068,0.170,-0.106,0.040,0.039,-0.154,0.029,1.150,-0.184,-0.001,1.279,0.485,1.940,0.491,1.938,0.491,1.938
3.859,0.474,-0.171,1.575,-0.361,-0.141,0.090,-0.374,-0.071,0.172,-0.005,-0.101,0.050,-0.155,0.031,1.149,-0.184,-0.003,1.284,0.485,1.940,0.491,1.938,0.491,1.938
3.888,0.649,-0.587,1.699,-0.357,-0.136,0.087,-0.382,-0.074,0.174,0.217,-0.294,0.101,-0.157,0.035,1.146,-0.188,-0.014,1.287,0.485,1.940,0.491,1.938,0.491,1.938
3.915,0.697,-1.316,1.910,-0.346,-0.134,0.094,-0.395,-0.080,0.178,0.296,-0.578,0.119,-0.158,0.035,1.145,-0.199,-0.044,1.296,0.485,1.940,0.491,1.938,0.491,1.938
3.949,0.486,-0.529,1.404,-0.339,-0.136,0.102,-0.402,-0.082,0.179,0.400,-0.575,-0.078,-0.156,0.032,1.144,-0.205,-0.058,1.304,0.692,2.396,0.627,2.420,0.627,2.420
3.980,1.169,-0.901,-0.442,-0.324,-0.143,0.120,-0.415,-0.088,0.184,-0.139,-0.900,-0.312,-0.152,0.025,1.142,-0.227,-0.082,1.295,0.692,2.396,0.627,2.420,0.627,2.420
4.009,-0.312,-1.933,2.490,-0.305,-0.158,0.137,-0.428,-0.094,0.189,-0.872,-1.007,-0.575,-0.152,0.019,1.141,-0.226,-0.117,1.307,0.692,2.396,0.627,2.420,0.627,2.420
4.037,-1.414,-0.366,2.483,-0.298,-0.169,0.151,-0.434,-0.097,0.192,-1.112,-0.516,-0.733,-0.153,0.013,1.138,-0.178,-0.136,1.340,0.692,2.396,0.627,2.420,0.627,2.420
4.063,-1.020,0.107,0.909,-0.294,-0.180,0.168,-0.440,-0.101,0.195,-0.147,0.462,-0.375,-0.159,0.002,1.130,-0.166,-0.129,1.326,0.692,2.396,0.627,2.420,0.627,2.420
4.088,-0.450,-0.129,-0.438,-0.293,-0.188,0.182,-0.446,-0.104,0.199,0.120,0.002,-0.346,-0.162,-0.002,1.124,-0.159,-0.118,1.318,0.692,2.396,0.627,2.420,0.627,2.420
4.113,-0.051,-1.770,0.130,-0.291,-0.207,0.204,-0.457,-0.112,0.206,0.045,-0.564,-0.389,-0.165,-0.006,1.119,-0.157,-0.140,1.323,0.692,2.396,0.627,2.420,0.627,2.420
4.140,0.092,-1.952,0.341,-0.290,-0.221,0.214,-0.463,-0.116,0.210,-0.195,-0.409,-0.545,-0.170,-0.016,1.108,-0.156,-0.153,1.319,0.692,2.396,0.627,2.420,0.627,2.420
4.167,0.078,-1.419,-0.134,-0.289,-0.239,0.224,-0.470,-0.122,0.215,-0.183,0.116,-0.624,-0.173,-0.022,1.102,-0.148,-0.172,1.328,0.692,2.396,0.627,2.420,0.627,2.420
4.200,-0.125,0.363,-1.410,-0.288,-0.269,0.236,-0.481,-0.131,0.224,-0.155,0.421,-0.705,-0.176,-0.026,1.094,-0.146,-0.155,1.322,0.692,2.396,0.627,2.420,0.627,2.420
4.226,0.048,0.595,-1.573,-0.287,-0.280,0.237,-0.486,-0.136,0.229,-0.018,0.268,-0.617,-0.181,-0.031,1.079,-0.146,-0.145,1.316,0.692,2.396,0.627,2.420,0.627,2.420
4.253,0.552,0.579,-2.366,-0.286,-0.297,0.229,-0.498,-0.148,0.238,0.120,0.081,-0.547,-0.183,-0.033,1.070,-0.156,-0.134,1.303,0.692,2.396,0.627,2.420,0.627,2.420
4.278,0.545,0.793,-2.761,-0.283,-0.302,0.217,-0.503,-0.154,0.243,0.231,-0.070,-0.525,-0.185,-0.034,1.061,-0.174,-0.134,1.294,0.692,2.396,0.627,2.420,0.627,2.420
4.305,0.385,1.065,-2.588,-0.280,-0.305,0.202,-0.509,-0.160,0.247,0.000,-0.238,-0.536,-0.187,-0.037,1.043,-0.179,-0.136,1.291,0.692,2.396,0.627,2.420,0.627,2.420
4.330,-0.408,0.523,-0.412,-0.275,-0.305,0.166,-0.520,-0.172,0.254,-0.213,-0.265,-0.506,-0.188,-0.039,1.034,-0.184,-0.135,1.287,0.692,2.396,0.627,2.420,0.627,2.420
4.357,-0.347,0.340,0.002,-0.273,-0.303,0.148,-0.526,-0.178,0.257,-0.330,-0.286,-0.423,-0.189,-0.041,1.024,-0.177,-0.135,1.288,0.692,2.396,0.627,2.420,0.627,2.420
4.382,-0.237,0.333,0.405,-0.273,-0.301,0.133,-0.531,-0.184,0.260,-0.266,-0.237,-0.246,-0.193,-0.047,1.007,-0.172,-0.139,1.288,0.692,2.396,0.627,2.420,0.627,2.420
4.407,-0.042,0.373,0.595,-0.272,-0.298,0.120,-0.537,-0.191,0.263,-0.178,-0.158,-0.166,-0.196,-0.050,0.998,-0.169,-0.139,1.280,0.692,2.396,0.627,2.420,0.627,2.420
4.433,0.429,0.410,0.295,-0.271,-0.291,0.100,-0.549,-0.203,0.267,-0.062,-0.032,-0.093,-0.199,-0.054,0.987,-0.171,-0.140,1.275,0.963,2.816,0.769,2.899,0.769,2.899
4.466,0.677,0.323,0.086,-0.269,-0.287,0.094,-0.553,-0.208,0.269,0.117,0.145,-0.018,-0.202,-0.058,0.977,-0.172,-0.138,1.267,0.963,2.816,0.769,2.899,0.769,2.899
4.491,0.419,-0.201,0.841,-0.262,-0.279,0.084,-0.563,-0.219,0.273,0.126,0.156,-0.053,-0.204,-0.059,0.970,-0.183,-0.134,1.257,0.963,2.816,0.769,2.899,0.769,2.899
4.517,0.108,-0.631,1.718,-0.258,-0.277,0.082,-0.569,-0.225,0.274,0.065,0.104,-0.110,-0.205,-0.060,0.965,-0.183,-0.133,1.260,0.963,2.816,0.769,2.899,0.769,2.899
4.544,-0.042,-0.740,1.656,-0.254,-0.276,0.084,-0.574,-0.231,0.276,0.123,0.169,-0.166,-0.207,-0.062,0.955,-0.184,-0.131,1.255,0.963,2.816,0.769,2.899,0.769,2.899
4.569,0.224,-1.781,0.332,-0.248,-0.281,0.092,-0.584,-0.242,0.279,0.263,0.171,-0.194,-0.207,-0.062,0.950,-0.182,-0.134,1.255,0.963,2.816,0.769,2.899,0.769,2.899
4.595,-0.821,-2.181,2.046,-0.245,-0.288,0.098,-0.589,-0.247,0.281,0.084,-0.065,-0.291,-0.207,-0.062,0.945,-0.176,-0.137,1.258,0.963,2.816,0.769,2.899,0.769,2.899
4.621,-1.735,-1.967,3.307,-0.245,-0.299,0.109,-0.594,-0.253,0.283,-0.588,-0.086,-0.520,-0.209,-0.063,0.934,-0.162,-0.139,1.261,0.963,2.816,0.769,2.899,0.769,2.899
4.647,-1.587,-1.837,2.985,-0.249,-0.313,0.126,-0.599,-0.259,0.286,-0.206,0.005,-0.386,-0.211,-0.064,0.928,-0.137,-0.138,1.274,0.963,2.816,0.769,2.899,0.769,2.899
4.672,-0.411,-0.582,-0.515,-0.261,-0.343,0.161,-0.609,-0.272,0.291,0.053,-0.054,-0.364,-0.214,-0.064,0.921,-0.129,-0.139,1.275,0.963,2.816,0.769,2.899,0.769,2.899
4.697,-0.663,0.125,-1.303,-0.267,-0.358,0.174,-0.614,-0.279,0.295,0.064,-0.001,-0.395,-0.216,-0.065,0.915,-0.131,-0.138,1.269,0.963,2.816,0.769,2.899,0.769,2.899
4.723,-0.905,0.627,-1.610,-0.275,-0.370,0.183,-0.619,-0.287,0.298,-0.200,0.447,-0.360,-0.219,-0.065,0.902,-0.126,-0.124,1.271,0.963,2.816,0.769,2.899,0.769,2.899
4.755,-1.028,0.203,-0.940,-0.293,-0.389,0.191,-0.631,-0.302,0.306,-0.290,0.381,-0.280,-0.222,-0.064,0.895,-0.110,-0.098,1.274,0.963,2.816,0.769,2.899,0.769,2.899
4.787,-0.925,-0.015,-0.736,-0.304,-0.396,0.191,-0.637,-0.310,0.310,-0.125,-0.100,-0.177,-0.227,-0.060,0.882,-0.105,-0.096,1.272,0.963,2.816,0.769,2.899,0.769,2.899
4.819,-0.561,0.081,-0.959,-0.327,-0.409,0.188,-0.649,-0.326,0.317,0.006,-0.142,-0.126,-0.229,-0.059,0.876,-0.097,-0.097,1.271,0.963,2.816,0.769,2.899,0.769,2.899
4.851,-0.206,0.430,-1.023,-0.349,-0.417,0.177,-0.663,-0.342,0.325,0.103,-0.023,-0.073,-0.233,-0.058,0.865,-0.098,-0.095,1.269,0.963,2.816,0.769,2.899,0.769,2.899
4.883,-0.006,0.326,-0.680,-0.359,-0.420,0.170,-0.670,-0.351,0.328,0.088,-0.064,-0.070,-0.236,-0.057,0.856,-0.101,-0.093,1.270,0.963,2.816,0.769,2.899,0.769,2.899
4.913,0.317,0.452,-0.735,-0.375,-0.422,0.154,-0.685,-0.367,0.335,0.156,-0.140,-0.097,-0.237,-0.057,0.852,-0.111,-0.097,1.262,0.963,2.816,0.769,2.899,0.769,2.899
4.948,0.241,0.943,-0.778,-0.382,-0.421,0.144,-0.693,-0.377,0.338,0.181,-0.108,-0.193,-0.237,-0.058,0.844,-0.116,-0.100,1.257,1.292,3.192,0.921,3.375,0.921,3.375
4.978,0.076,1.233,-0.116,-0.391,-0.415,0.127,-0.708,-0.393,0.343,0.081,0.043,-0.171,-0.236,-0.058,0.840,-0.129,-0.093,1.243,1.292,3.192,0.921,3.375,0.921,3.375
5.009,0.242,0.909,0.160,-0.398,-0.401,0.112,-0.723,-0.409,0.348,0.100,0.089,-0.092,-0.235,-0.059,0.833,-0.139,-0.083,1.237,1.292,3.192,0.921,3.375,0.921,3.375
5.039,0.116,0.486,0.801,-0.401,-0.392,0.106,-0.732,-0.417,0.350,0.121,-0.056,-0.099,-0.235,-0.059,0.829,-0.148,-0.078,1.230,1.292,3.192,0.921,3.375,0.921,3.375
5.067,0.077,-0.050,1.115,-0.403,-0.384,0.104,-0.740,-0.425,0.352,0.066,-0.275,-0.142,-0.233,-0.059,0.823,-0.150,-0.082,1.230,1.292,3.192,0.921,3.375,0.921,3.375
5.092,0.327,-0.779,0.662,-0.405,-0.372,0.104,-0.756,-0.440,0.356,0.103,-0.323,-0.142,-0.232,-0.061,0.819,-0.153,-0.096,1.233,1.292,3.192,0.921,3.375,0.921,3.375
5.119,0.373,-0.532,0.600,-0.405,-0.369,0.106,-0.764,-0.447,0.358,0.099,-0.343,-0.151,-0.230,-0.062,0.816,-0.155,-0.107,1.231,1.292,3.192,0.921,3.375,0.921,3.375
5.148,0.702,-0.238,0.507,-0.404,-0.367,0.110,-0.773,-0.455,0.361,0.061,-0.382,-0.156,-0.228,-0.067,0.810,-0.157,-0.113,1.230,1.292,3.192,0.921,3.375,0.921,3.375
5.176,1.723,-2.052,-0.398,-0.397,-0.367,0.115,-0.788,-0.469,0.365,0.043,-0.531,-0.158,-0.227,-0.071,0.807,-0.163,-0.144,1.241,1.292,3.192,0.921,3.375,0.921,3.375
5.205,0.550,-2.425,0.942,-0.389,-0.374,0.118,-0.796,-0.477,0.367,-1.410,-0.644,-0.775,-0.226,-0.080,0.799,-0.150,-0.173,1.250,1.292,3.192,0.921,3.375,0.921,3.375
5.234,-1.522,-0.901,3.511,-0.379,-0.397,0.138,-0.813,-0.493,0.373,-1.399,0.028,-0.623,-0.230,-0.086,0.794,-0.091,-0.171,1.281,1.292,3.192,0.921,3.375,0.921,3.375
5.266,-0.929,-0.217,1.641,-0.379,-0.406,0.151,-0.819,-0.500,0.375,-0.105,0.266,-0.104,-0.241,-0.094,0.784,-0.077,-0.162,1.271,1.292,3.192,0.921,3.375,0.921,3.375
5.294,0.816,-0.940,-0.587,-0.380,-0.428,0.183,-0.834,-0.517,0.382,0.297,-0.263,-0.076,-0.246,-0.097,0.779,-0.080,-0.164,1.261,1.292,3.192,0.921,3.375,0.921,3.375
5.322,0.981,-1.150,-0.830,-0.378,-0.440,0.194,-0.841,-0.525,0.386,0.204,-0.558,-0.172,-0.253,-0.104,0.770,-0.085,-0.192,1.266,1.292,3.192,0.921,3.375,0.921,3.375
5.351,0.007,-0.424,-0.258,-0.370,-0.466,0.210,-0.856,-0.543,0.394,-0.048,-0.244,-0.286,-0.255,-0.109,0.765,-0.087,-0.210,1.269,1.292,3.192,0.921,3.375,0.921,3.375
5.377,-0.503,-0.125,0.258,-0.367,-0.479,0.216,-0.864,-0.553,0.398,-0.292,0.154,-0.341,-0.258,-0.114,0.760,-0.082,-0.207,1.272,1.292,3.192,0.921,3.375,0.921,3.375
5.406,-0.177,-0.086,-0.100,-0.365,-0.490,0.221,-0.871,-0.562,0.402,-0.046,0.423,-0.172,-0.263,-0.119,0.751,-0.076,-0.198,1.275,1.292,3.192,0.921,3.375,0.921,3.375
5.436,0.477,0.813,-2.155,-0.360,-0.508,0.227,-0.886,-0.582,0.411,0.237,0.315,-0.148,-0.267,-0.121,0.745,-0.088,-0.189,1.265,1.658,3.533,1.068,3.853,1.068,3.853
5.466,0.417,1.377,-2.839,-0.357,-0.513,0.222,-0.893,-0.593,0.416,0.301,0.161,-0.216,-0.269,-0.122,0.737,-0.096,-0.185,1.254,1.658,3.533,1.068,3.853,1.068,3.853
5.493,0.000,1.129,-2.272,-0.350,-0.514,0.199,-0.907,-0.613,0.424,0.084,0.158,-0.226,-0.269,-0.122,0.733,-0.115,-0.180,1.237,1.658,3.533,1.068,3.853,1.068,3.853
5.522,-0.152,0.655,-1.424,-0.347,-0.511,0.183,-0.914,-0.624,0.428,-0.283,0.000,-0.183,-0.270,-0.121,0.724,-0.115,-0.176,1.244,1.658,3.533,1.068,3.853,1.068,3.853
5.549,-0.269,0.138,-0.117,-0.344,-0.504,0.150,-0.928,-0.644,0.435,-0.329,-0.022,-0.125,-0.271,-0.121,0.720,-0.111,-0.176,1.248,1.658,3.533,1.068,3.853,1.068,3.853
5.576,-0.150,0.177,0.455,-0.343,-0.501,0.136,-0.935,-0.654,0.438,-0.291,-0.033,-0.045,-0.273,-0.120,0.715,-0.098,-0.174,1.258,1.658,3.533,1.068,3.853,1.068,3.853
5.608,0.199,0.133,0.669,-0.342,-0.497,0.124,-0.942,-0.664,0.440,-0.117,-0.043,0.173,-0.277,-0.120,0.709,-0.097,-0.174,1.253,1.658,3.533,1.068,3.853,1.068,3.853
5.637,1.204,0.597,0.135,-0.337,-0.490,0.107,-0.955,-0.684,0.445,0.038,-0.013,0.281,-0.279,-0.120,0.707,-0.106,-0.180,1.246,1.658,3.533,1.068,3.853,1.068,3.853
5.666,1.752,0.698,-0.084,-0.332,-0.485,0.100,-0.962,-0.693,0.447,0.266,0.072,0.337,-0.282,-0.120,0.704,-0.108,-0.181,1.246,1.658,3.533,1.068,3.853,1.068,3.853
5.693,1.275,0.072,0.616,-0.312,-0.474,0.089,-0.975,-0.713,0.451,0.228,0.165,0.264,-0.283,-0.120,0.704,-0.130,-0.188,1.235,1.658,3.533,1.068,3.853,1.068,3.853
5.722,0.423,-0.370,1.644,-0.300,-0.469,0.087,-0.981,-0.722,0.452,0.051,0.243,-0.024,-0.282,-0.118,0.705,-0.134,-0.184,1.240,1.658,3.533,1.068,3.853,1.068,3.853
5.749,-0.105,-0.681,2.149,-0.288,-0.466,0.089,-0.987,-0.732,0.454,0.112,0.241,-0.044,-0.282,-0.117,0.706,-0.135,-0.179,1.243,1.658,3.533,1.068,3.853,1.068,3.853
5.776,0.503,-1.171,-0.207,-0.270,-0.464,0.100,-0.998,-0.750,0.458,0.323,0.312,0.023,-0.281,-0.115,0.706,-0.141,-0.167,1.237,1.658,3.533,1.068,3.853,1.068,3.853
5.805,1.102,-1.834,0.132,-0.260,-0.467,0.105,-1.003,-0.760,0.460,0.221,-0.220,-0.056,-0.278,-0.111,0.707,-0.144,-0.180,1.242,1.658,3.533,1.068,3.853,1.068,3.853
5.831,-1.196,-2.363,3.183,-0.243,-0.486,0.123,-1.013,-0.778,0.464,-0.476,-0.213,-0.480,-0.276,-0.109,0.706,-0.127,-0.184,1.255,1.658,3.533,1.068,3.853,1.068,3.853
5.858,-1.053,-1.849,2.097,-0.238,-0.501,0.139,-1.018,-0.788,0.467,-0.093,0.173,-0.343,-0.276,-0.108,0.705,-0.127,-0.179,1.251,1.658,3.533,1.068,3.853,1.068,3.853
5.886,0.085,-1.344,-0.419,-0.235,-0.517,0.155,-1.023,-0.798,0.470,0.411,-0.205,-0.279,-0.273,-0.105,0.702,-0.124,-0.185,1.252,1.658,3.533,1.068,3.853,1.068,3.853
5.916,-0.833,-0.996,-0.334,-0.231,-0.553,0.180,-1.032,-0.820,0.477,0.175,-0.398,-0.447,-0.271,-0.105,0.700,-0.126,-0.196,1.254,1.658,3.533,1.068,3.853,1.068,3.853
5.948,-1.253,-0.618,-0.437,-0.232,-0.572,0.190,-1.037,-0.832,0.481,-0.119,-0.066,-0.451,-0.267,-0.106,0.693,-0.127,-0.201,1.253,1.658,3.533,1.068,3.853,1.068,3.853
5.973,-0.769,0.113,-1.187,-0.239,-0.603,0.202,-1.046,-0.854,0.488,-0.121,0.180,-0.316,-0.266,-0.106,0.689,-0.115,-0.191,1.261,1.658,3.533,1.068,3.853,1.068,3.853
5.998,-0.584,0.571,-1.554,-0.245,-0.616,0.203,-1.051,-0.867,0.492,-0.087,0.281,-0.224,-0.265,-0.106,0.684,-0.113,-0.181,1.255,1.658,3.533,1.068,3.853,1.068,3.853
6.024,-0.564,0.961,-1.942,-0.252,-0.628,0.200,-1.057,-0.881,0.497,0.046,0.089,-0.219,-0.264,-0.105,0.676,-0.113,-0.176,1.251,1.658,3.533,1.068,3.853,1.068,3.853
6.049,-0.513,1.182,-2.333,-0.258,-0.634,0.194,-1.061,-0.892,0.500,0.056,-0.023,-0.209,-0.263,-0.105,0.672,-0.118,-0.168,1.247,1.658,3.533,1.068,3.853,1.068,3.853
6.073,-0.666,1.101,-1.540,-0.273,-0.640,0.172,-1.072,-0.917,0.508,-0.039,-0.035,-0.197,-0.262,-0.104,0.668,-0.123,-0.159,1.240,1.658,3.533,1.068,3.853,1.068,3.853
6.098,-0.884,0.900,-0.506,-0.281,-0.639,0.158,-1.077,-0.930,0.511,-0.177,0.043,-0.192,-0.262,-0.103,0.663,-0.120,-0.157,1.239,1.658,3.533,1.068,3.853,1.068,3.853
6.124,-0.794,0.645,0.182,-0.290,-0.637,0.145,-1.083,-0.943,0.514,-0.197,0.173,-0.104,-0.263,-0.102,0.655,-0.116,-0.144,1.233,1.658,3.533,1.068,3.853,1.068,3.853
6.154,-0.907,0.780,0.537,-0.310,-0.629,0.126,-1.095,-0.968,0.519,-0.039,0.217,-0.082,-0.263,-0.100,0.651,-0.113,-0.124,1.224,1.658,3.533,1.068,3.853,1.068,3.853
6.179,-0.773,0.993,0.429,-0.321,-0.624,0.119,-1.101,-0.980,0.522,0.133,0.296,-0.046,-0.264,-0.099,0.648,-0.116,-0.118,1.214,1.658,3.533,1.068,3.853,1.068,3.853
6.206,-0.371,0.903,0.165,-0.333,-0.617,0.113,-1.108,-0.994,0.524,0.324,0.440,0.140,-0.264,-0.094,0.642,-0.126,-0.102,1.203,1.658,3.533,1.068,3.853,1.068,3.853
6.231,-0.008,0.281,0.967,-0.353,-0.601,0.107,-1.121,-1.017,0.529,0.342,0.367,0.155,-0.263,-0.091,0.640,-0.142,-0.084,1.185,1.658,3.533,1.068,3.853,1.068,3.853
6.258,0.259,-0.207,0.877,-0.362,-0.594,0.107,-1.129,-1.030,0.531,0.381,0.193,0.138,-0.261,-0.087,0.638,-0.149,-0.080,1.184,1.658,3.533,1.068,3.853,1.068,3.853
6.284,0.282,-0.354,0.754,-0.369,-0.588,0.108,-1.136,-1.041,0.533,0.457,0.133,0.112,-0.256,-0.081,0.636,-0.158,-0.082,1.186,1.658,3.533,1.068,3.853,1.068,3.853
6.309,0.251,0.192,0.471,-0.379,-0.580,0.115,-1.151,-1.064,0.537,0.368,0.276,0.142,-0.252,-0.077,0.636,-0.177,-0.075,1.175,1.658,3.533,1.068,3.853,1.068,3.853
6.333,0.302,-0.259,-0.219,-0.383,-0.576,0.119,-1.159,-1.076,0.540,0.354,0.430,0.209,-0.248,-0.073,0.635,-0.184,-0.067,1.166,1.658,3.533,1.068,3.853,1.068,3.853
6.358,1.683,-0.740,-0.757,-0.385,-0.574,0.122,-1.167,-1.089,0.542,0.351,0.516,0.224,-0.244,-0.069,0.636,-0.194,-0.077,1.168,1.658,3.533,1.068,3.853,1.068,3.853
6.384,0.760,-2.155,-0.058,-0.383,-0.575,0.123,-1.174,-1.099,0.544,-0.448,-0.566,-0.142,-0.236,-0.061,0.637,-0.198,-0.075,1.175,1.658,3.533,1.068,3.853,1.068,3.853
6.409,-2.398,-2.477,2.992,-0.387,-0.590,0.137,-1.189,-1.122,0.550,-1.356,-0.596,-0.525,-0.234,-0.059,0.637,-0.144,-0.092,1.220,1.658,3.533,1.068,3.853,1.068,3.853
6.434,-1.245,-1.479,1.853,-0.394,-0.603,0.151,-1.197,-1.134,0.553,-1.543,0.035,-0.400,-0.236,-0.057,0.636,-0.102,-0.087,1.251,2.060,3.831,1.240,4.323,1.240,4.323
6.461,0.730,-2.043,0.655,-0.401,-0.618,0.167,-1.205,-1.147,0.556,0.117,0.086,0.514,-0.242,-0.053,0.636,-0.092,-0.075,1.237,2.060,3.831,1.240,4.323,1.240,4.323
6.486,1.614,-1.733,-0.440,-0.405,-0.635,0.180,-1.213,-1.159,0.559,0.310,-0.312,0.192,-0.244,-0.051,0.636,-0.089,-0.096,1.241,2.060,3.831,1.240,4.323,1.240,4.323
6.513,-0.243,-0.042,-1.866,-0.406,-0.671,0.197,-1.229,-1.185,0.567,0.125,-0.337,-0.180,-0.247,-0.050,0.637,-0.092,-0.111,1.242,2.060,3.831,1.240,4.323,1.240,4.323
6.541,-0.544,-0.154,-1.362,-0.407,-0.687,0.199,-1.237,-1.199,0.571,-0.415,0.253,-0.060,-0.250,-0.049,0.638,-0.089,-0.111,1.244,2.060,3.831,1.240,4.323,1.240,4.323
6.569,0.268,-0.464,-0.594,-0.410,-0.716,0.197,-1.254,-1.227,0.579,-0.382,0.381,0.070,-0.253,-0.047,0.638,-0.075,-0.107,1.257,2.060,3.831,1.240,4.323,1.240,4.323
6.597,0.526,-0.059,-0.946,-0.410,-0.729,0.194,-1.262,-1.241,0.583,-0.136,0.369,0.117,-0.256,-0.046,0.638,-0.066,-0.098,1.262,2.060,3.831,1.240,4.323,1.240,4.323
6.629,0.720,0.220,-1.802,-0.409,-0.743,0.187,-1.271,-1.258,0.587,0.386,0.329,0.068,-0.261,-0.040,0.639,-0.069,-0.092,1.257,2.060,3.831,1.240,4.323,1.240,4.323
6.659,1.154,0.886,-2.048,-0.404,-0.760,0.168,-1.286,-1.286,0.593,0.417,0.406,0.049,-0.262,-0.037,0.639,-0.089,-0.089,1.238,2.060,3.831,1.240,4.323,1.240,4.323
6.689,0.462,0.558,-1.738,-0.392,-0.767,0.134,-1.302,-1.316,0.600,0.149,0.420,-0.086,-0.262,-0.029,0.640,-0.111,-0.079,1.223,2.060,3.831,1.240,4.323,1.240,4.323
6.718,0.290,0.622,-0.577,-0.385,-0.768,0.116,-1.310,-1.332,0.602,-0.027,0.274,0.001,-0.262,-0.025,0.640,-0.120,-0.064,1.209,2.060,3.831,1.240,4.323,1.240,4.323
6.748,0.324,0.753,-0.518,-0.379,-0.768,0.098,-1.318,-1.347,0.604,0.051,0.414,0.180,-0.261,-0.015,0.641,-0.119,-0.059,1.212,2.060,3.831,1.240,4.323,1.240,4.323
6.778,0.725,1.054,-0.398,-0.364,-0.764,0.064,-1.333,-1.378,0.607,-0.004,0.518,0.173,-0.261,-0.009,0.642,-0.127,-0.048,1.201,2.060,3.831,1.240,4.323,1.240,4.323
6.804,0.094,1.419,0.804,-0.356,-0.759,0.049,-1.340,-1.393,0.609,-0.195,-0.189,0.116,-0.261,0.001,0.643,-0.135,-0.038,1.192,2.060,3.831,1.240,4.323,1.240,4.323
6.829,1.186,0.042,1.457,-0.339,-0.745,0.031,-1.354,-1.423,0.610,0.028,-0.607,0.373,-0.261,0.005,0.645,-0.139,-0.062,1.204,2.060,3.831,1.240,4.323,1.240,4.323
6.856,1.756,-0.273,1.885,-0.329,-0.738,0.028,-1.360,-1.438,0.611,0.324,-0.822,0.607,-0.261,0.007,0.647,-0.144,-0.080,1.211,2.060,3.831,1.240,4.323,1.240,4.323
6.883,1.244,-0.586,2.317,-0.315,-0.733,0.030,-1.367,-1.453,0.611,0.524,-0.683,0.432,-0.259,0.006,0.654,-0.157,-0.107,1.220,2.060,3.831,1.240,4.323,1.240,4.323
6.910,-0.244,0.312,2.395,-0.291,-0.727,0.046,-1.379,-1.482,0.613,0.580,-0.452,0.233,-0.256,0.003,0.658,-0.180,-0.127,1.217,2.060,3.831,1.240,4.323,1.240,4.323
6.936,-0.474,-0.317,1.669,-0.281,-0.724,0.060,-1.385,-1.496,0.614,0.652,-0.126,0.106,-0.252,0.000,0.663,-0.192,-0.130,1.215,2.455,4.137,1.413,4.792,1.413,4.792
6.965,-1.197,-0.026,0.797,-0.273,-0.721,0.075,-1.391,-1.511,0.615,0.773,0.623,0.101,-0.242,-0.003,0.670,-0.201,-0.115,1.214,2.455,4.137,1.413,4.792,1.413,4.792
6.992,-1.962,-0.730,1.308,-0.268,-0.720,0.105,-1.401,-1.540,0.619,0.720,0.778,0.127,-0.236,-0.003,0.674,-0.216,-0.078,1.192,2.455,4.137,1.413,4.792,1.413,4.792
7.018,-1.999,-1.107,1.260,-0.272,-0.722,0.122,-1.406,-1.554,0.621,0.629,0.693,0.110,-0.228,-0.001,0.678,-0.228,-0.065,1.178,2.455,4.137,1.413,4.792,1.413,4.792
7.047,-1.713,-1.372,1.789,-0.279,-0.727,0.140,-1.412,-1.568,0.624,0.428,0.226,0.099,-0.213,0.005,0.684,-0.222,-0.048,1.172,2.455,4.137,1.413,4.792,1.413,4.792
7.073,-0.997,-1.419,0.849,-0.298,-0.743,0.181,-1.423,-1.598,0.630,0.491,-0.342,-0.027,-0.204,0.008,0.687,-0.225,-0.051,1.180,2.455,4.137,1.413,4.792,1.413,4.792
7.101,-0.988,-1.284,-0.538,-0.310,-0.754,0.201,-1.430,-1.613,0.634,0.110,0.323,0.009,-0.188,0.013,0.692,-0.233,-0.055,1.185,2.455,4.137,1.413,4.792,1.413,4.792
7.129,-0.567,-0.926,-1.513,-0.334,-0.780,0.226,-1.442,-1.644,0.642,-0.194,0.777,0.070,-0.182,0.016,0.694,-0.217,-0.034,1.194,2.455,4.137,1.413,4.792,1.413,4.792
7.158,-0.532,-0.342,-1.231,-0.346,-0.793,0.233,-1.449,-1.659,0.647,-0.370,0.899,0.060,-0.175,0.021,0.696,-0.203,-0.014,1.202,2.455,4.137,1.413,4.792,1.413,4.792
7.188,-0.638,-0.047,-1.056,-0.358,-0.805,0.237,-1.456,-1.675,0.652,-0.279,0.325,0.079,-0.167,0.032,0.700,-0.195,-0.001,1.203,2.455,4.137,1.413,4.792,1.413,4.792
7.221,0.065,0.684,-1.085,-0.382,-0.828,0.237,-1.471,-1.708,0.661,0.040,0.137,0.286,-0.163,0.043,0.704,-0.179,0.007,1.212,2.455,4.137,1.413,4.792,1.413,4.792
7.251,0.906,-0.233,-1.916,-0.399,-0.845,0.225,-1.487,-1.741,0.671,0.162,0.128,0.349,-0.160,0.049,0.707,-0.188,0.008,1.206,2.455,4.137,1.413,4.792,1.413,4.792
7.282,0.787,0.391,-1.286,-0.403,-0.852,0.215,-1.495,-1.758,0.675,0.100,0.097,0.199,-0.156,0.058,0.713,-0.200,0.007,1.206,2.455,4.137,1.413,4.792,1.413,4.792
7.311,0.431,0.218,-0.787,-0.408,-0.863,0.191,-1.511,-1.793,0.683,0.103,0.060,0.086,-0.154,0.062,0.716,-0.209,0.008,1.205,2.455,4.137,1.413,4.792,1.413,4.792
7.343,-0.072,0.394,-0.558,-0.409,-0.867,0.178,-1.519,-1.810,0.687,0.049,0.259,-0.054,-0.149,0.070,0.722,-0.211,0.011,1.210,2.455,4.137,1.413,4.792,1.413,4.792
7.373,-0.165,0.370,0.128,-0.411,-0.871,0.155,-1.536,-1.845,0.693,0.000,0.490,-0.032,-0.147,0.075,0.724,-0.214,0.031,1.195,2.455,4.137,1.413,4.792,1.413,4.792
7.404,-0.132,0.300,0.599,-0.413,-0.872,0.146,-1.544,-1.862,0.696,-0.009,0.432,0.045,-0.144,0.085,0.728,-0.214,0.045,1.196,2.455,4.137,1.413,4.792,1.413,4.792
7.435,0.059,0.093,1.363,-0.417,-0.873,0.134,-1.562,-1.901,0.703,0.071,0.291,0.035,-0.142,0.093,0.730,-0.215,0.057,1.193,2.828,4.469,1.598,5.256,1.598,5.256
7.471,0.357,0.466,0.334,-0.418,-0.872,0.135,-1.577,-1.932,0.707,0.414,-0.043,0.057,-0.139,0.102,0.733,-0.233,0.059,1.182,2.828,4.469,1.598,5.256,1.598,5.256
7.498,0.401,0.538,-0.600,-0.418,-0.870,0.135,-1.585,-1.949,0.710,0.544,-0.134,0.034,-0.137,0.106,0.734,-0.244,0.057,1.172,2.828,4.469,1.598,5.256,1.598,5.256
7.524,0.966,-0.504,-0.829,-0.416,-0.869,0.134,-1.594,-1.967,0.713,0.266,-0.337,-0.072,-0.129,0.113,0.737,-0.259,0.044,1.162,2.828,4.469,1.598,5.256,1.598,5.256
7.551,-0.862,-1.774,3.923,-0.409,-0.873,0.137,-1.611,-2.002,0.718,-0.352,-0.811,-0.220,-0.125,0.114,0.737,-0.241,0.015,1.193,2.828,4.469,1.598,5.256,1.598,5.256
7.578,-2.156,-1.359,4.502,-0.410,-0.879,0.149,-1.618,-2.019,0.721,-0.982,-0.776,-0.535,-0.123,0.114,0.737,-0.221,0.002,1.212,2.828,4.469,1.598,5.256,1.598,5.256
7.609,-1.847,-0.586,2.778,-0.414,-0.887,0.167,-1.627,-2.037,0.724,-0.409,-0.053,-0.567,-0.125,0.111,0.734,-0.187,0.004,1.226,2.828,4.469,1.598,5.256,1.598,5.256
7.639,1.470,-1.346,-0.814,-0.425,-0.905,0.207,-1.644,-2.073,0.732,0.337,-0.130,-0.120,-0.126,0.110,0.731,-0.187,-0.017,1.233,2.828,4.469,1.598,5.256,1.598,5.256
7.669,1.610,-1.681,-0.721,-0.420,-0.932,0.232,-1.660,-2.109,0.740,0.448,-0.630,0.156,-0.127,0.105,0.726,-0.199,-0.028,1.223,2.828,4.469,1.598,5.256,1.598,5.256
7.698,0.138,-0.944,-0.263,-0.414,-0.948,0.241,-1.669,-2.128,0.745,-0.380,-0.127,-0.507,-0.126,0.101,0.724,-0.200,-0.065,1.245,2.828,4.469,1.598,5.256,1.598,5.256
7.725,-0.734,-0.179,-0.399,-0.409,-0.965,0.250,-1.678,-2.149,0.750,-0.411,0.746,-0.522,-0.127,0.097,0.718,-0.184,-0.049,1.250,2.828,4.469,1.598,5.256,1.598,5.256
7.752,-0.264,0.211,-1.654,-0.405,-0.991,0.257,-1.694,-2.187,0.760,-0.195,0.759,-0.354,-0.129,0.097,0.713,-0.174,-0.010,1.237,2.828,4.469,1.598,5.256,1.598,5.256
7.779,0.397,0.241,-2.183,-0.403,-1.001,0.255,-1.701,-2.206,0.765,0.048,0.491,-0.176,-0.131,0.099,0.709,-0.175,0.001,1.223,2.828,4.469,1.598,5.256,1.598,5.256
7.807,0.639,0.344,-2.658,-0.401,-1.010,0.248,-1.709,-2.226,0.770,0.257,0.067,-0.077,-0.133,0.103,0.701,-0.190,0.005,1.203,2.828,4.469,1.598,5.256,1.598,5.256
7.835,0.515,0.516,-2.365,-0.393,-1.023,0.222,-1.725,-2.267,0.780,0.143,0.055,-0.084,-0.133,0.105,0.697,-0.209,0.011,1.187,2.828,4.469,1.598,5.256,1.598,5.256
7.861,0.692,0.223,-1.362,-0.388,-1.028,0.204,-1.734,-2.288,0.784,-0.144,0.101,-0.067,-0.133,0.109,0.690,-0.209,0.014,1.187,2.828,4.469,1.598,5.256,1.598,5.256
7.888,0.732,0.306,-0.665,-0.382,-1.031,0.187,-1.741,-2.308,0.788,-0.114,-0.103,-0.071,-0.134,0.111,0.687,-0.213,0.013,1.183,2.828,4.469,1.598,5.256,1.598,5.256
7.916,0.431,0.363,0.055,-0.368,-1.034,0.153,-1.756,-2.349,0.795,-0.095,-0.208,-0.159,-0.134,0.112,0.684,-0.214,0.007,1.184,2.828,4.469,1.598,5.256,1.598,5.256
7.945,0.132,0.234,1.127,-0.360,-1.035,0.139,-1.763,-2.371,0.798,-0.281,-0.150,-0.255,-0.136,0.113,0.678,-0.210,0.005,1.179,3.216,4.785,1.787,5.719,1.787,5.719
7.973,0.070,0.097,1.876,-0.348,-1.035,0.125,-1.777,-2.411,0.803,-0.246,-0.056,-0.233,-0.138,0.113,0.674,-0.199,0.001,1.186,3.216,4.785,1.787,5.719,1.787,5.719
7.999,0.230,0.411,1.482,-0.342,-1.035,0.124,-1.784,-2.432,0.805,-0.092,0.177,-0.186,-0.140,0.114,0.671,-0.201,0.005,1.186,3.216,4.785,1.787,5.719,1.787,5.719
8.026,0.580,0.621,0.733,-0.336,-1.033,0.126,-1.791,-2.453,0.808,0.298,0.522,-0.059,-0.142,0.116,0.664,-0.203,0.014,1.174,3.216,4.785,1.787,5.719,1.787,5.719
8.054,0.157,0.154,-0.133,-0.323,-1.028,0.131,-1.804,-2.495,0.813,0.398,0.362,-0.075,-0.143,0.118,0.661,-0.223,0.030,1.150,3.216,4.785,1.787,5.719,1.787,5.719
8.079,-0.201,-0.519,-0.258,-0.317,-1.026,0.133,-1.811,-2.515,0.816,0.404,0.189,-0.170,-0.142,0.121,0.658,-0.226,0.034,1.145,3.216,4.785,1.787,5.719,1.787,5.719
8.107,-0.133,-1.179,0.803,-0.312,-1.026,0.135,-1.817,-2.535,0.818,-0.033,-0.318,-0.406,-0.139,0.126,0.651,-0.232,0.036,1.136,3.216,4.785,1.787,5.719,1.787,5.719
8.136,-2.980,-0.818,3.151,-0.309,-1.033,0.149,-1.830,-2.577,0.824,-0.575,-0.656,-0.645,-0.139,0.127,0.647,-0.201,0.018,1.171,3.216,4.785,1.787,5.719,1.787,5.719
8.162,-3.215,0.031,1.860,-0.316,-1.039,0.163,-1.836,-2.598,0.827,-0.833,0.123,-0.611,-0.142,0.126,0.636,-0.168,0.030,1.174,3.216,4.785,1.787,5.719,1.787,5.719
8.189,-0.740,-0.005,-0.908,-0.341,-1.047,0.190,-1.849,-2.639,0.834,-0.583,0.418,-0.142,-0.146,0.126,0.629,-0.151,0.034,1.182,3.216,4.785,1.787,5.719,1.787,5.719
8.216,-0.691,-0.516,-0.196,-0.355,-1.050,0.200,-1.856,-2.660,0.838,-0.479,0.282,0.227,-0.150,0.127,0.624,-0.125,0.056,1.190,3.216,4.785,1.787,5.719,1.787,5.719
8.242,-0.824,-0.019,0.354,-0.371,-1.055,0.210,-1.864,-2.683,0.843,-0.474,-0.297,0.180,-0.161,0.128,0.616,-0.110,0.059,1.201,3.216,4.785,1.787,5.719,1.787,5.719
8.269,-0.641,0.180,0.157,-0.384,-1.058,0.219,-1.871,-2.704,0.847,-0.191,-0.371,0.222,-0.166,0.128,0.613,-0.101,0.053,1.211,3.216,4.785,1.787,5.719,1.787,5.719
8.296,0.103,0.129,-0.896,-0.409,-1.063,0.232,-1.886,-2.744,0.855,0.087,-0.401,0.325,-0.172,0.127,0.610,-0.099,0.041,1.210,3.216,4.785,1.787,5.719,1.787,5.719
8.322,0.469,-0.026,-0.780,-0.420,-1.065,0.235,-1.895,-2.767,0.860,0.108,0.064,0.557,-0.180,0.124,0.610,-0.103,0.035,1.209,3.216,4.785,1.787,5.719,1.787,5.719
8.348,0.702,0.139,-0.837,-0.428,-1.066,0.236,-1.903,-2.787,0.865,0.231,0.083,0.496,-0.183,0.123,0.611,-0.106,0.035,1.203,3.216,4.785,1.787,5.719,1.787,5.719
8.375,0.980,0.704,-1.753,-0.438,-1.067,0.231,-1.920,-2.830,0.874,0.280,0.005,0.404,-0.185,0.122,0.613,-0.126,0.032,1.189,3.216,4.785,1.787,5.719,1.787,5.719
8.402,0.709,0.494,-1.360,-0.439,-1.065,0.224,-1.929,-2.851,0.879,-0.044,-0.018,0.265,-0.188,0.121,0.618,-0.137,0.029,1.189,3.216,4.785,1.787,5.719,1.787,5.719
8.430,0.570,0.367,-0.616,-0.439,-1.063,0.215,-1.938,-2.872,0.883,-0.154,0.083,0.236,-0.190,0.120,0.622,-0.137,0.028,1.191,3.623,5.075,1.973,6.184,1.973,6.184
8.458,0.378,0.592,0.037,-0.436,-1.057,0.198,-1.956,-2.916,0.892,-0.147,0.144,0.202,-0.191,0.120,0.624,-0.136,0.031,1.192,3.623,5.075,1.973,6.184,1.973,6.184
8.485,0.557,0.463,0.033,-0.434,-1.053,0.191,-1.964,-2.936,0.895,0.092,0.263,0.198,-0.194,0.120,0.631,-0.141,0.033,1.189,3.623,5.075,1.973,6.184,1.973,6.184
8.513,0.779,0.646,-0.036,-0.426,-1.042,0.178,-1.981,-2.978,0.903,0.211,0.244,0.167,-0.195,0.121,0.634,-0.157,0.040,1.175,3.623,5.075,1.973,6.184,1.973,6.184
8.539,0.895,0.434,0.504,-0.420,-1.036,0.173,-1.990,-2.998,0.906,0.288,0.001,0.117,-0.196,0.124,0.641,-0.162,0.043,1.175,3.623,5.075,1.973,6.184,1.973,6.184
8.567,0.856,0.208,0.846,-0.413,-1.030,0.169,-1.998,-3.020,0.910,0.338,-0.116,0.062,-0.195,0.125,0.644,-0.174,0.036,1.172,3.623,5.075,1.973,6.184,1.973,6.184
8.594,0.894,-0.033,1.167,-0.396,-1.019,0.169,-2.014,-3.060,0.916,0.349,-0.066,0.021,-0.194,0.125,0.647,-0.192,0.025,1.166,3.623,5.075,1.973,6.184,1.973,6.184
8.620,0.809,-0.017,0.911,-0.387,-1.014,0.172,-2.022,-3.080,0.920,0.330,0.037,-0.122,-0.189,0.127,0.652,-0.199,0.025,1.162,3.623,5.075,1.973,6.184,1.973,6.184
8.646,0.395,0.420,0.685,-0.377,-1.009,0.177,-2.030,-3.101,0.923,0.341,-0.078,-0.192,-0.187,0.127,0.653,-0.210,0.025,1.160,3.623,5.075,1.973,6.184,1.973,6.184
8.675,1.228,-1.254,-0.733,-0.358,-1.000,0.185,-2.044,-3.141,0.930,0.381,-0.255,-0.193,-0.183,0.127,0.655,-0.222,0.003,1.159,3.623,5.075,1.973,6.184,1.973,6.184
8.701,2.102,-2.616,1.485,-0.346,-1.000,0.190,-2.051,-3.161,0.934,-0.327,-1.086,-0.398,-0.176,0.125,0.655,-0.228,-0.007,1.161,3.623,5.075,1.973,6.184,1.973,6.184
8.728,-0.536,-2.570,3.327,-0.333,-1.006,0.198,-2.058,-3.181,0.938,-1.144,-1.188,-0.909,-0.175,0.120,0.654,-0.205,-0.037,1.189,3.623,5.075,1.973,6.184,1.973,6.184
8.758,-2.807,-0.234,2.460,-0.322,-1.027,0.231,-2.072,-3.222,0.947,-1.453,-0.402,-1.234,-0.176,0.114,0.650,-0.142,-0.047,1.226,3.623,5.075,1.973,6.184,1.973,6.184
8.785,-2.025,-0.536,0.958,-0.326,-1.038,0.252,-2.078,-3.242,0.951,-0.508,0.798,-0.553,-0.184,0.106,0.640,-0.120,-0.035,1.224,3.623,5.075,1.973,6.184,1.973,6.184
8.813,1.014,-0.963,-0.165,-0.337,-1.060,0.291,-2.091,-3.284,0.962,0.066,0.286,-0.090,-0.190,0.104,0.633,-0.105,-0.012,1.218,3.623,5.075,1.973,6.184,1.973,6.184
8.839,1.263,-0.490,-1.763,-0.339,-1.072,0.306,-2.098,-3.305,0.968,0.478,-0.327,0.121,-0.193,0.103,0.627,-0.117,-0.033,1.216,3.623,5.075,1.973,6.184,1.973,6.184
8.866,0.525,0.335,-2.290,-0.339,-1.084,0.315,-2.105,-3.328,0.975,0.423,-0.299,-0.327,-0.197,0.098,0.618,-0.129,-0.044,1.217,3.623,5.075,1.973,6.184,1.973,6.184
8.896,-0.819,0.457,-1.227,-0.339,-1.100,0.321,-2.118,-3.372,0.987,-0.013,-0.004,-0.389,-0.198,0.095,0.613,-0.141,-0.040,1.208,3.623,5.075,1.973,6.184,1.973,6.184
8.927,-0.671,0.246,-0.842,-0.342,-1.106,0.319,-2.125,-3.394,0.994,0.037,0.171,-0.078,-0.200,0.090,0.602,-0.133,-0.025,1.214,4.034,5.359,2.147,6.652,2.147,6.652
8.958,0.624,0.492,-2.415,-0.347,-1.114,0.309,-2.139,-3.438,1.006,0.308,0.035,-0.018,-0.200,0.089,0.598,-0.148,-0.022,1.200,4.034,5.359,2.147,6.652,2.147,6.652
8.985,0.645,0.898,-2.704,-0.347,-1.116,0.298,-2.146,-3.460,1.013,0.109,0.125,-0.130,-0.200,0.087,0.590,-0.155,-0.021,1.197,4.034,5.359,2.147,6.652,2.147,6.652
9.017,0.041,0.768,-1.120,-0.346,-1.114,0.267,-2.160,-3.504,1.024,-0.194,0.228,-0.195,-0.199,0.087,0.585,-0.164,-0.009,1.187,4.034,5.359,2.147,6.652,2.147,6.652
9.044,-0.332,0.380,0.338,-0.345,-1.111,0.250,-2.167,-3.527,1.029,-0.544,0.138,-0.186,-0.200,0.087,0.578,-0.157,0.001,1.191,4.034,5.359,2.147,6.652,2.147,6.652
9.069,-0.186,0.101,1.411,-0.346,-1.105,0.228,-2.180,-3.570,1.038,-0.365,0.060,-0.082,-0.202,0.088,0.574,-0.146,0.004,1.192,4.034,5.359,2.147,6.652,2.147,6.652
9.095,0.377,0.578,0.723,-0.347,-1.101,0.222,-2.188,-3.594,1.043,-0.015,0.054,0.075,-0.205,0.088,0.570,-0.139,0.007,1.199,4.034,5.359,2.147,6.652,2.147,6.652
9.121,0.946,0.909,-0.063,-0.346,-1.097,0.218,-2.194,-3.614,1.047,0.452,0.357,0.294,-0.207,0.091,0.566,-0.157,0.008,1.196,4.034,5.359,2.147,6.652,2.147,6.652
9.150,1.189,0.929,0.253,-0.338,-1.083,0.210,-2.208,-3.659,1.056,0.419,0.458,0.305,-0.207,0.093,0.564,-0.188,0.017,1.171,4.034,5.359,2.147,6.652,2.147,6.652
9.179,0.932,0.499,1.212,-0.331,-1.075,0.208,-2.215,-3.681,1.060,0.358,0.491,0.286,-0.206,0.095,0.564,-0.195,0.026,1.165,4.034,5.359,2.147,6.652,2.147,6.652
9.208,0.596,0.216,1.971,-0.323,-1.067,0.209,-2.222,-3.703,1.065,0.509,0.220,0.237,-0.202,0.102,0.564,-0.207,0.028,1.157,4.034,5.359,2.147,6.652,2.147,6.652
9.236,0.291,-0.830,0.534,-0.309,-1.053,0.220,-2.234,-3.744,1.073,0.698,0.088,0.224,-0.199,0.106,0.565,-0.226,0.025,1.139,4.034,5.359,2.147,6.652,2.147,6.652
9.266,1.192,-1.344,0.926,-0.301,-1.050,0.228,-2.240,-3.766,1.077,0.122,-0.858,0.010,-0.190,0.111,0.568,-0.241,0.020,1.142,4.034,5.359,2.147,6.652,2.147,6.652
9.292,-2.792,-1.736,3.744,-0.291,-1.054,0.257,-2.252,-3.807,1.087,-0.628,-0.863,-0.358,-0.186,0.111,0.569,-0.213,-0.016,1.180,4.034,5.359,2.147,6.652,2.147,6.652
9.319,-2.404,-0.244,2.141,-0.295,-1.060,0.280,-2.258,-3.829,1.092,-0.781,-0.173,-0.520,-0.184,0.110,0.569,-0.186,-0.004,1.194,4.034,5.359,2.147,6.652,2.147,6.652
9.345,-1.136,-0.637,0.577,-0.301,-1.067,0.303,-2.264,-3.850,1.098,0.022,0.564,0.057,-0.184,0.109,0.567,-0.177,0.006,1.196,4.034,5.359,2.147,6.652,2.147,6.652
9.373,-0.239,-0.561,-1.424,-0.315,-1.080,0.339,-2.276,-3.893,1.111,0.324,0.182,0.079,-0.183,0.110,0.566,-0.179,0.022,1.185,4.034,5.359,2.147,6.652,2.147,6.652
9.401,-0.089,-0.666,-1.586,-0.322,-1.087,0.351,-2.282,-3.915,1.118,0.259,-0.209,-0.055,-0.180,0.111,0.565,-0.179,0.019,1.193,4.034,5.359,2.147,6.652,2.147,6.652
9.428,0.226,-0.780,-1.747,-0.328,-1.096,0.358,-2.289,-3.938,1.125,0.153,-0.184,-0.043,-0.178,0.111,0.564,-0.184,0.015,1.194,4.034,5.359,2.147,6.652,2.147,6.652
9.454,0.332,-0.808,-1.150,-0.336,-1.114,0.361,-2.302,-3.981,1.139,0.026,-0.068,-0.048,-0.177,0.111,0.564,-0.182,0.003,1.205,4.034,5.359,2.147,6.652,2.147,6.652
9.479,0.159,-0.677,-1.002,-0.339,-1.124,0.358,-2.309,-4.002,1.146,-0.098,0.015,-0.100,-0.175,0.111,0.563,-0.175,-0.000,1.213,4.034,5.359,2.147,6.652,2.147,6.652
9.505,0.269,-0.430,-1.263,-0.341,-1.135,0.353,-2.316,-4.027,1.154,-0.045,0.130,-0.153,-0.173,0.111,0.561,-0.172,0.002,1.217,4.034,5.359,2.147,6.652,2.147,6.652
9.532,0.331,-0.121,-1.825,-0.342,-1.153,0.338,-2.329,-4.070,1.167,0.051,0.205,-0.159,-0.172,0.111,0.559,-0.172,0.008,1.213,4.034,5.359,2.147,6.652,2.147,6.652
9.556,0.388,0.053,-1.662,-0.342,-1.162,0.325,-2.336,-4.095,1.174,0.009,0.193,-0.158,-0.171,0.112,0.558,-0.175,0.012,1.208,4.034,5.359,2.147,6.652,2.147,6.652
9.585,0.497,0.047,-1.213,-0.341,-1.169,0.311,-2.343,-4.118,1.181,-0.093,0.035,-0.169,-0.170,0.114,0.555,-0.174,0.015,1.211,4.034,5.359,2.147,6.652,2.147,6.652
9.611,0.066,0.180,-0.526,-0.337,-1.181,0.282,-2.356,-4.164,1.192,-0.159,0.123,-0.203,-0.170,0.115,0.552,-0.171,0.018,1.212,4.034,5.359,2.147,6.652,2.147,6.652
9.637,-0.022,0.344,-0.238,-0.335,-1.186,0.269,-2.363,-4.187,1.198,-0.170,0.214,-0.198,-0.170,0.117,0.550,-0.170,0.025,1.207,4.034,5.359,2.147,6.652,2.147,6.652
9.662,-0.156,0.434,0.011,-0.334,-1.190,0.255,-2.370,-4.212,1.203,-0.049,0.001,-0.189,-0.171,0.120,0.545,-0.168,0.029,1.203,4.034,5.359,2.147,6.652,2.147,6.652
9.687,-0.281,0.423,0.380,-0.333,-1.192,0.244,-2.377,-4.236,1.208,-0.026,-0.123,-0.160,-0.172,0.121,0.543,-0.169,0.034,1.203,4.034,5.359,2.147,6.652,2.147,6.652
9.712,-0.347,-0.145,2.025,-0.334,-1.194,0.232,-2.390,-4.283,1.217,-0.001,-0.233,-0.108,-0.172,0.122,0.540,-0.166,0.027,1.209,4.034,5.359,2.147,6.652,2.147,6.652
9.736,-0.025,-0.379,1.719,-0.335,-1.195,0.232,-2.396,-4.307,1.222,0.133,-0.348,-0.031,-0.173,0.122,0.538,-0.168,0.020,1.212,4.034,5.359,2.147,6.652,2.147,6.652
9.761,0.327,-0.346,0.304,-0.335,-1.197,0.234,-2.403,-4.332,1.227,0.406,-0.378,0.017,-0.172,0.120,0.533,-0.174,0.008,1.221,4.034,5.359,2.147,6.652,2.147,6.652
9.787,1.636,-0.872,-0.640,-0.334,-1.200,0.235,-2.410,-4.356,1.232,0.039,-0.634,-0.103,-0.170,0.118,0.531,-0.182,0.001,1.220,4.034,5.359,2.147,6.652,2.147,6.652
9.812,-0.446,-2.440,3.187,-0.321,-1.215,0.242,-2.423,-4.403,1.241,-0.881,-0.930,-0.569,-0.170,0.114,0.529,-0.162,-0.059,1.257,4.034,5.359,2.147,6.652,2.147,6.652
9.837,-3.690,-1.597,4.440,-0.319,-1.228,0.254,-2.429,-4.427,1.246,-1.724,-0.363,-1.208,-0.173,0.110,0.525,-0.111,-0.049,1.288,4.034,5.359,2.147,6.652,2.147,6.652
9.863,-3.282,0.092,2.876,-0.324,-1.241,0.273,-2.436,-4.453,1.251,-0.976,0.946,-0.794,-0.185,0.104,0.512,-0.079,-0.036,1.290,4.034,5.359,2.147,6.652,2.147,6.652
9.888,-1.482,-0.373,1.706,-0.332,-1.253,0.294,-2.443,-4.478,1.257,-0.231,0.517,-0.139,-0.193,0.104,0.504,-0.053,-0.008,1.293,4.034,5.359,2.147,6.652,2.147,6.652
9.912,1.695,-0.356,-0.531,-0.345,-1.277,0.337,-2.456,-4.529,1.270,0.396,-0.239,0.171,-0.201,0.104,0.497,-0.061,-0.019,1.285,4.034,5.359,2.147,6.652,2.147,6.652
9.937,0.502,0.566,-1.134,-0.346,-1.288,0.354,-2.463,-4.554,1.277,0.683,-0.755,-0.186,-0.206,0.103,0.491,-0.075,-0.034,1.279,4.474,5.598,2.288,7.132,2.288,7.132
9.964,-0.246,0.937,-1.678,-0.347,-1.296,0.367,-2.470,-4.580,1.284,0.144,-0.089,-0.728,-0.212,0.098,0.478,-0.092,-0.036,1.269,4.474,5.598,2.288,7.132,2.288,7.132
9.988,-0.398,0.732,-1.175,-0.348,-1.301,0.375,-2.477,-4.605,1.291,-0.154,0.392,-0.523,-0.214,0.096,0.470,-0.095,-0.036,1.268,4.474,5.598,2.288,7.132,2.288,7.132
10.012,0.177,0.818,-1.592,-0.352,-1.307,0.382,-2.491,-4.657,1.306,-0.142,0.582,-0.453,-0.217,0.095,0.461,-0.094,-0.008,1.263,4.474,5.598,2.288,7.132,2.288,7.132
10.039,0.612,0.757,-2.085,-0.353,-1.307,0.380,-2.498,-4.684,1.314,0.330,0.249,-0.314,-0.220,0.096,0.446,-0.104,0.002,1.246,4.474,5.598,2.288,7.132,2.288,7.132
10.070,0.657,0.745,-2.664,-0.350,-1.303,0.363,-2.512,-4.735,1.329,0.421,-0.027,-0.329,-0.221,0.097,0.438,-0.111,0.008,1.240,4.474,5.598,2.288,7.132,2.288,7.132
10.100,0.242,0.794,-2.068,-0.347,-1.298,0.347,-2.519,-4.763,1.336,0.299,-0.104,-0.375,-0.221,0.098,0.430,-0.134,0.007,1.217,4.474,5.598,2.288,7.132,2.288,7.132
10.130,-0.323,0.737,-0.358,-0.342,-1.286,0.315,-2.533,-4.814,1.349,-0.206,0.200,-0.338,-0.220,0.100,0.415,-0.140,0.013,1.211,4.474,5.598,2.288,7.132,2.288,7.132
10.158,-0.335,0.676,0.190,-0.341,-1.279,0.300,-2.540,-4.840,1.355,-0.154,0.142,-0.139,-0.220,0.101,0.408,-0.138,0.027,1.212,4.474,5.598,2.288,7.132,2.288,7.132
10.189,0.216,0.542,0.433,-0.340,-1.272,0.288,-2.546,-4.866,1.361,0.325,-0.044,0.154,-0.220,0.103,0.395,-0.139,0.028,1.214,4.474,5.598,2.288,7.132,2.288,7.132
10.222,0.954,1.020,0.101,-0.335,-1.255,0.265,-2.560,-4.916,1.372,0.105,-0.015,0.062,-0.218,0.105,0.386,-0.166,0.021,1.201,4.474,5.598,2.288,7.132,2.288,7.132
10.250,-0.213,0.485,2.477,-0.326,-1.233,0.254,-2.573,-4.966,1.383,-0.128,0.162,-0.012,-0.217,0.105,0.382,-0.173,0.021,1.197,4.474,5.598,2.288,7.132,2.288,7.132
10.279,-0.400,0.315,2.961,-0.323,-1.223,0.256,-2.579,-4.989,1.388,-0.109,0.291,-0.004,-0.216,0.106,0.379,-0.173,0.028,1.197,4.474,5.598,2.288,7.132,2.288,7.132
10.308,-0.307,0.292,2.728,-0.321,-1.213,0.264,-2.586,-5.014,1.393,0.507,0.092,0.178,-0.215,0.110,0.373,-0.176,0.033,1.199,4.474,5.598,2.288,7.132,2.288,7.132
10.339,0.197,-0.195,0.622,-0.318,-1.194,0.289,-2.599,-5.063,1.404,0.737,-0.084,0.210,-0.212,0.111,0.371,-0.204,0.034,1.187,4.474,5.598,2.288,7.132,2.288,7.132
10.368,1.015,-0.944,1.101,-0.316,-1.187,0.302,-2.605,-5.087,1.410,0.219,-0.782,0.076,-0.205,0.112,0.369,-0.213,0.012,1.199,4.474,5.598,2.288,7.132,2.288,7.132
10.397,-1.015,-1.724,2.444,-0.310,-1.183,0.335,-2.617,-5.133,1.422,-0.261,-0.662,-0.227,-0.201,0.110,0.368,-0.197,-0.015,1.226,4.474,5.598,2.288,7.132,2.288,7.132
10.427,-1.862,-0.654,0.582,-0.311,-1.186,0.357,-2.624,-5.158,1.430,-0.056,0.494,-0.253,-0.195,0.106,0.364,-0.192,-0.014,1.229,4.941,5.777,2.456,7.603,2.456,7.603
10.459,-0.415,-0.649,-0.777,-0.318,-1.192,0.392,-2.637,-5.205,1.445,-0.225,-0.062,-0.083,-0.193,0.105,0.361,-0.185,0.015,1.213,4.941,5.777,2.456,7.603,2.456,7.603
10.486,-0.599,-0.951,-0.184,-0.324,-1.197,0.405,-2.643,-5.229,1.453,-0.392,-0.217,-0.142,-0.192,0.104,0.359,-0.170,0.016,1.224,4.941,5.777,2.456,7.603,2.456,7.603
10.513,-0.566,-0.483,-1.280,-0.336,-1.210,0.424,-2.656,-5.276,1.469,-0.348,-0.181,-0.115,-0.192,0.104,0.357,-0.148,0.015,1.241,4.941,5.777,2.456,7.603,2.456,7.603
10.539,-0.262,-0.017,-2.090,-0.344,-1.218,0.428,-2.663,-5.303,1.478,-0.170,-0.057,-0.024,-0.193,0.103,0.355,-0.144,0.014,1.243,4.941,5.777,2.456,7.603,2.456,7.603
10.565,0.005,0.182,-2.348,-0.351,-1.223,0.428,-2.670,-5.326,1.486,-0.067,0.159,0.126,-0.194,0.101,0.352,-0.144,0.020,1.249,4.941,5.777,2.456,7.603,2.456,7.603
10.591,0.351,0.127,-2.141,-0.361,-1.232,0.414,-2.684,-5.374,1.503,-0.105,0.050,0.149,-0.195,0.101,0.351,-0.142,0.023,1.254,4.941,5.777,2.456,7.603,2.456,7.603
10.619,0.542,0.180,-1.914,-0.365,-1.235,0.402,-2.691,-5.399,1.511,-0.075,-0.142,0.170,-0.196,0.100,0.350,-0.141,0.020,1.266,4.941,5.777,2.456,7.603,2.456,7.603
10.648,0.534,0.288,-1.643,-0.367,-1.238,0.388,-2.698,-5.423,1.519,-0.026,-0.288,0.104,-0.198,0.099,0.350,-0.145,0.012,1.271,4.941,5.777,2.456,7.603,2.456,7.603
10.677,0.373,0.172,-0.563,-0.368,-1.241,0.356,-2.713,-5.474,1.534,-0.117,-0.296,0.032,-0.199,0.097,0.350,-0.145,-0.002,1.278,4.941,5.777,2.456,7.603,2.456,7.603
10.707,0.061,0.241,-0.075,-0.368,-1.241,0.342,-2.720,-5.498,1.541,-0.287,-0.180,-0.128,-0.202,0.093,0.350,-0.140,-0.007,1.283,4.941,5.777,2.456,7.603,2.456,7.603
10.737,-0.834,0.540,0.152,-0.368,-1.241,0.317,-2.735,-5.547,1.554,-0.315,0.022,-0.183,-0.204,0.091,0.350,-0.129,-0.006,1.291,4.941,5.777,2.456,7.603,2.456,7.603
10.766,-0.825,0.786,0.047,-0.371,-1.239,0.306,-2.743,-5.573,1.560,0.110,0.401,0.057,-0.209,0.088,0.349,-0.129,0.009,1.282,4.941,5.777,2.456,7.603,2.456,7.603
10.793,-0.174,0.747,-0.245,-0.378,-1.232,0.289,-2.758,-5.622,1.572,0.327,0.202,0.121,-0.211,0.088,0.348,-0.144,0.026,1.263,4.941,5.777,2.456,7.603,2.456,7.603
10.820,-0.301,0.827,-0.901,-0.382,-1.226,0.280,-2.765,-5.646,1.578,0.483,-0.020,0.119,-0.211,0.088,0.348,-0.154,0.025,1.259,4.941,5.777,2.456,7.603,2.456,7.603
10.845,-0.529,0.793,-0.986,-0.387,-1.219,0.270,-2.773,-5.671,1.583,0.340,-0.312,0.075,-0.210,0.087,0.348,-0.169,0.031,1.249,4.941,5.777,2.456,7.603,2.456,7.603
10.874,0.843,-0.279,0.412,-0.395,-1.205,0.251,-2.789,-5.719,1.594,0.101,-0.362,0.162,-0.208,0.086,0.349,-0.178,0.008,1.257,4.941,5.777,2.456,7.603,2.456,7.603
10.899,2.570,-1.064,0.967,-0.395,-1.201,0.245,-2.797,-5.744,1.599,-0.084,-0.386,0.181,-0.207,0.084,0.349,-0.177,-0.000,1.265,4.941,5.777,2.456,7.603,2.456,7.603
10.926,2.134,-1.788,2.308,-0.390,-1.200,0.242,-2.804,-5.767,1.603,-1.157,-0.943,-0.652,-0.207,0.077,0.350,-0.161,-0.037,1.292,5.410,5.948,2.596,8.083,2.596,8.083
10.954,-3.096,-1.939,4.319,-0.381,-1.209,0.256,-2.820,-5.817,1.614,-1.701,-0.406,-1.164,-0.210,0.072,0.348,-0.091,-0.045,1.336,5.410,5.948,2.596,8.083,2.596,8.083
10.980,-3.092,-0.481,2.928,-0.386,-1.218,0.273,-2.828,-5.841,1.619,-1.060,1.196,-0.286,-0.226,0.065,0.340,-0.060,-0.032,1.344,5.410,5.948,2.596,8.083,2.596,8.083
11.008,-1.065,-0.417,1.743,-0.395,-1.227,0.295,-2.836,-5.866,1.625,-0.360,1.073,0.468,-0.235,0.065,0.336,-0.035,-0.001,1.356,5.410,5.948,2.596,8.083,2.596,8.083
11.034,2.266,0.273,-1.215,-0.406,-1.244,0.333,-2.851,-5.913,1.637,0.243,0.434,0.619,-0.243,0.067,0.333,-0.041,0.007,1.344,5.410,5.948,2.596,8.083,2.596,8.083
11.061,1.971,0.259,-2.630,-0.404,-1.251,0.347,-2.860,-5.941,1.644,0.219,-0.459,-0.081,-0.256,0.070,0.330,-0.051,0.002,1.334,5.410,5.948,2.596,8.083,2.596,8.083
11.086,0.717,0.477,-2.348,-0.401,-1.256,0.352,-2.867,-5.963,1.650,-0.345,-0.200,-0.299,-0.261,0.070,0.329,-0.058,-0.013,1.331,5.410,5.948,2.596,8.083,2.596,8.083
11.116,-0.707,-0.517,0.833,-0.393,-1.266,0.358,-2.883,-6.014,1.665,-0.696,0.133,-0.336,-0.267,0.070,0.327,-0.033,-0.009,1.342,5.410,5.948,2.596,8.083,2.596,8.083
11.144,-0.196,-0.187,0.487,-0.391,-1.271,0.362,-2.891,-6.039,1.672,-0.143,0.193,-0.127,-0.279,0.071,0.322,-0.022,-0.004,1.345,5.410,5.948,2.596,8.083,2.596,8.083
11.170,1.143,1.014,-1.765,-0.385,-1.279,0.367,-2.907,-6.092,1.687,0.332,0.093,0.039,-0.285,0.072,0.320,-0.023,-0.005,1.348,5.410,5.948,2.596,8.083,2.596,8.083
11.196,1.222,1.277,-2.285,-0.380,-1.279,0.364,-2.914,-6.116,1.694,0.612,0.023,0.067,-0.289,0.073,0.318,-0.055,-0.011,1.326,5.410,5.948,2.596,8.083,2.596,8.083
11.223,1.322,1.327,-2.306,-0.372,-1.276,0.356,-2.922,-6.143,1.701,0.431,0.162,-0.086,-0.293,0.075,0.315,-0.067,-0.009,1.323,5.410,5.948,2.596,8.083,2.596,8.083
11.251,0.905,0.322,-0.329,-0.353,-1.266,0.335,-2.937,-6.194,1.715,0.189,0.149,-0.211,-0.293,0.077,0.313,-0.091,-0.008,1.306,5.410,5.948,2.596,8.083,2.596,8.083
11.277,0.645,-0.160,0.798,-0.342,-1.261,0.325,-2.944,-6.219,1.722,-0.020,0.029,-0.326,-0.293,0.078,0.311,-0.092,-0.013,1.308,5.410,5.948,2.596,8.083,2.596,8.083
11.303,0.486,-0.387,1.326,-0.332,-1.258,0.319,-2.950,-6.243,1.728,-0.015,-0.327,-0.518,-0.294,0.080,0.305,-0.090,-0.015,1.310,5.410,5.948,2.596,8.083,2.596,8.083
11.328,0.082,-0.474,1.503,-0.322,-1.255,0.315,-2.957,-6.268,1.734,0.081,-0.376,-0.599,-0.294,0.080,0.300,-0.089,-0.023,1.308,5.410,5.948,2.596,8.083,2.596,8.083
11.353,-1.063,-0.035,1.858,-0.307,-1.252,0.319,-2.969,-6.319,1.747,0.131,-0.154,-0.650,-0.294,0.079,0.296,-0.094,-0.024,1.305,5.410,5.948,2.596,8.083,2.596,8.083
11.378,-0.286,0.186,1.598,-0.303,-1.250,0.326,-2.975,-6.344,1.754,0.265,0.136,-0.518,-0.294,0.079,0.290,-0.100,-0.021,1.296,5.410,5.948,2.596,8.083,2.596,8.083
11.404,0.416,0.337,1.077,-0.300,-1.249,0.335,-2.981,-6.368,1.760,0.972,0.043,-0.013,-0.290,0.078,0.279,-0.123,-0.020,1.275,5.410,5.948,2.596,8.083,2.596,8.083
11.429,0.370,0.687,0.704,-0.296,-1.246,0.345,-2.987,-6.394,1.767,0.856,-0.020,-0.095,-0.284,0.078,0.273,-0.142,-0.019,1.267,5.891,6.086,2.748,8.559,2.748,8.559
11.456,0.093,-0.659,0.342,-0.288,-1.242,0.364,-2.999,-6.444,1.781,0.607,-0.066,-0.131,-0.280,0.078,0.270,-0.170,-0.022,1.254,5.891,6.086,2.748,8.559,2.748,8.559
11.481,-0.826,-1.045,0.888,-0.285,-1.242,0.375,-3.005,-6.470,1.789,-0.216,0.011,-0.297,-0.269,0.078,0.261,-0.165,-0.019,1.261,5.891,6.086,2.748,8.559,2.748,8.559
11.509,-1.967,-1.406,1.690,-0.285,-1.245,0.385,-3.011,-6.494,1.796,-0.413,0.191,-0.270,-0.264,0.078,0.256,-0.161,-0.018,1.265,5.891,6.086,2.748,8.559,2.748,8.559
11.536,-0.766,-1.657,1.498,-0.294,-1.257,0.413,-3.022,-6.542,1.812,-0.283,0.026,-0.120,-0.261,0.078,0.252,-0.134,-0.002,1.272,5.891,6.086,2.748,8.559,2.748,8.559
11.564,-0.258,-1.819,1.596,-0.301,-1.268,0.431,-3.028,-6.569,1.821,-0.285,-0.709,-0.083,-0.257,0.076,0.244,-0.118,-0.014,1.280,5.891,6.086,2.748,8.559,2.748,8.559
11.590,-0.880,-1.373,0.528,-0.315,-1.296,0.467,-3.040,-6.619,1.838,-0.382,-0.359,-0.164,-0.256,0.074,0.240,-0.113,-0.028,1.286,5.891,6.086,2.748,8.559,2.748,8.559
11.616,-0.992,-0.202,-0.727,-0.324,-1.311,0.484,-3.047,-6.645,1.848,-0.265,0.244,-0.117,-0.256,0.072,0.237,-0.088,-0.025,1.300,5.891,6.086,2.748,8.559,2.748,8.559
11.646,-0.660,0.217,-2.011,-0.333,-1.326,0.496,-3.053,-6.673,1.858,0.044,0.354,0.056,-0.257,0.070,0.230,-0.083,-0.005,1.293,5.891,6.086,2.748,8.559,2.748,8.559
11.677,-0.305,0.703,-2.311,-0.352,-1.347,0.506,-3.067,-6.725,1.878,0.032,0.144,0.093,-0.257,0.070,0.228,-0.087,0.013,1.286,5.891,6.086,2.748,8.559,2.748,8.559
11.706,-0.191,0.802,-2.039,-0.362,-1.354,0.502,-3.075,-6.755,1.889,0.011,-0.032,0.140,-0.257,0.071,0.224,-0.087,0.013,1.288,5.891,6.086,2.748,8.559,2.748,8.559
11.735,-0.045,0.829,-1.397,-0.378,-1.360,0.487,-3.089,-6.806,1.907,0.055,-0.033,0.154,-0.257,0.071,0.223,-0.094,0.016,1.287,5.891,6.086,2.748,8.559,2.748,8.559
11.765,0.035,0.888,-1.209,-0.385,-1.360,0.475,-3.097,-6.835,1.918,0.187,-0.037,0.145,-0.257,0.071,0.221,-0.104,0.018,1.283,5.891,6.086,2.748,8.559,2.748,8.559
11.794,0.208,0.654,-0.679,-0.396,-1.356,0.451,-3.112,-6.888,1.936,0.231,-0.022,0.140,-0.256,0.071,0.221,-0.119,0.016,1.276,5.891,6.086,2.748,8.559,2.748,8.559
11.823,0.083,0.496,-0.362,-0.400,-1.352,0.438,-3.120,-6.916,1.945,0.189,0.101,0.072,-0.253,0.071,0.222,-0.123,0.017,1.271,5.891,6.086,2.748,8.559,2.748,8.559
11.851,-0.148,0.001,0.662,-0.408,-1.344,0.417,-3.136,-6.970,1.962,0.166,0.176,0.046,-0.251,0.072,0.222,-0.133,0.024,1.266,5.891,6.086,2.748,8.559,2.748,8.559
11.880,0.115,-0.149,0.909,-0.411,-1.341,0.411,-3.144,-6.996,1.970,0.308,-0.088,0.094,-0.248,0.073,0.224,-0.137,0.025,1.260,5.891,6.086,2.748,8.559,2.748,8.559
11.909,0.428,-0.434,1.125,-0.414,-1.338,0.406,-3.153,-7.025,1.979,0.341,-0.298,0.084,-0.245,0.073,0.224,-0.143,0.023,1.260,5.891,6.086,2.748,8.559,2.748,8.559
11.939,0.048,-0.213,0.988,-0.417,-1.336,0.405,-3.169,-7.077,1.995,0.314,-0.315,0.042,-0.241,0.073,0.225,-0.153,0.006,1.263,6.379,6.197,2.900,9.036,2.900,9.036
11.967,0.636,-0.461,-0.103,-0.417,-1.337,0.407,-3.178,-7.104,2.003,0.296,-0.095,0.043,-0.235,0.071,0.227,-0.156,-0.004,1.266,6.379,6.197,2.900,9.036,2.900,9.036
11.995,1.376,-0.979,0.514,-0.408,-1.340,0.409,-3.194,-7.156,2.019,0.144,-1.002,-0.421,-0.231,0.069,0.227,-0.159,-0.039,1.278,6.379,6.197,2.900,9.036,2.900,9.036
12.022,-1.357,-1.944,3.603,-0.403,-1.346,0.414,-3.202,-7.183,2.027,-1.610,0.457,-0.825,-0.230,0.062,0.223,-0.131,-0.049,1.286,6.379,6.197,2.900,9.036,2.900,9.036
12.049,-1.984,-1.237,2.521,-0.400,-1.354,0.426,-3.210,-7.211,2.036,-0.953,1.097,-0.316,-0.234,0.061,0.220,-0.091,-0.026,1.296,6.379,6.197,2.900,9.036,2.900,9.036
12.076,0.831,-0.518,0.453,-0.401,-1.373,0.452,-3.226,-7.264,2.053,-0.224,1.016,0.099,-0.238,0.062,0.216,-0.065,0.008,1.304,6.379,6.197,2.900,9.036,2.900,9.036
12.103,2.124,-0.684,-0.140,-0.399,-1.384,0.465,-3.234,-7.292,2.062,0.591,-0.667,-0.027,-0.245,0.065,0.212,-0.072,0.009,1.292,6.379,6.197,2.900,9.036,2.900,9.036
12.129,1.465,-0.287,-0.935,-0.392,-1.395,0.476,-3.243,-7.323,2.072,0.452,-0.701,-0.511,-0.247,0.064,0.209,-0.082,-0.019,1.293,6.379,6.197,2.900,9.036,2.900,9.036
12.156,-0.866,0.517,-1.683,-0.380,-1.412,0.486,-3.258,-7.377,2.091,0.072,-0.178,-0.677,-0.247,0.063,0.206,-0.094,-0.023,1.287,6.379,6.197,2.900,9.036,2.900,9.036
12.186,-0.586,0.419,-1.264,-0.376,-1.418,0.486,-3.265,-7.406,2.101,-0.351,0.685,-0.180,-0.249,0.062,0.197,-0.089,-0.014,1.286,6.379,6.197,2.900,9.036,2.900,9.036
12.215,0.709,0.785,-1.614,-0.371,-1.425,0.478,-3.280,-7.461,2.120,-0.203,0.552,-0.024,-0.251,0.064,0.193,-0.083,0.013,1.278,6.379,6.197,2.900,9.036,2.900,9.036
12.242,0.727,1.147,-2.181,-0.367,-1.425,0.469,-3.288,-7.491,2.130,0.318,0.126,-0.057,-0.254,0.068,0.186,-0.096,0.016,1.272,6.379,6.197,2.900,9.036,2.900,9.036
12.269,0.753,1.474,-2.852,-0.361,-1.423,0.456,-3.295,-7.520,2.139,0.360,-0.028,-0.120,-0.254,0.071,0.182,-0.102,0.019,1.276,6.379,6.197,2.900,9.036,2.900,9.036
12.296,0.788,1.067,-2.278,-0.348,-1.412,0.420,-3.309,-7.575,2.156,0.236,-0.016,-0.158,-0.254,0.073,0.179,-0.127,0.012,1.262,6.379,6.197,2.900,9.036,2.900,9.036
12.321,0.636,0.819,-1.753,-0.339,-1.404,0.396,-3.316,-7.606,2.165,0.031,-0.109,-0.279,-0.253,0.076,0.173,-0.138,0.008,1.258,6.379,6.197,2.900,9.036,2.900,9.036
12.348,0.398,0.555,-0.737,-0.331,-1.395,0.373,-3.323,-7.634,2.173,0.006,-0.292,-0.324,-0.252,0.077,0.169,-0.138,0.007,1.257,6.379,6.197,2.900,9.036,2.900,9.036
12.375,-0.270,-0.294,1.384,-0.316,-1.381,0.338,-3.335,-7.687,2.186,0.000,-0.490,-0.381,-0.252,0.077,0.165,-0.138,-0.009,1.253,6.379,6.197,2.900,9.036,2.900,9.036
12.403,-0.512,-0.255,1.763,-0.310,-1.375,0.327,-3.342,-7.714,2.193,0.125,-0.260,-0.307,-0.251,0.075,0.156,-0.138,-0.016,1.248,6.379,6.197,2.900,9.036,2.900,9.036
12.430,-0.323,0.279,1.644,-0.302,-1.366,0.318,-3.354,-7.770,2.206,0.161,0.088,-0.068,-0.249,0.073,0.150,-0.147,-0.016,1.241,6.873,6.275,3.059,9.510,3.059,9.510
12.457,-0.225,0.128,1.077,-0.300,-1.361,0.318,-3.360,-7.798,2.212,0.242,0.362,0.095,-0.249,0.072,0.147,-0.152,-0.009,1.235,6.873,6.275,3.059,9.510,3.059,9.510
12.484,-0.262,-0.181,0.885,-0.298,-1.357,0.321,-3.366,-7.825,2.219,0.368,0.358,0.261,-0.245,0.072,0.141,-0.158,-0.001,1.233,6.873,6.275,3.059,9.510,3.059,9.510
12.512,0.707,-1.201,2.842,-0.294,-1.354,0.333,-3.378,-7.878,2.232,0.158,0.542,0.406,-0.242,0.073,0.139,-0.162,0.006,1.234,6.873,6.275,3.059,9.510,3.059,9.510
12.540,-0.076,-1.918,3.840,-0.291,-1.357,0.347,-3.384,-7.905,2.238,-0.654,-0.011,0.176,-0.239,0.077,0.138,-0.156,0.011,1.245,6.873,6.275,3.059,9.510,3.059,9.510
12.563,-0.779,-1.960,3.121,-0.289,-1.364,0.368,-3.390,-7.933,2.246,-0.670,0.148,0.040,-0.240,0.079,0.138,-0.131,0.012,1.269,6.873,6.275,3.059,9.510,3.059,9.510
12.589,-1.272,-0.927,1.059,-0.290,-1.372,0.388,-3.395,-7.959,2.253,-0.386,0.652,0.181,-0.241,0.082,0.139,-0.118,0.015,1.279,6.873,6.275,3.059,9.510,3.059,9.510
12.615,0.181,0.215,-1.164,-0.294,-1.389,0.426,-3.407,-8.015,2.269,0.171,0.733,0.319,-0.243,0.086,0.140,-0.111,0.044,1.276,6.873,6.275,3.059,9.510,3.059,9.510
12.639,0.088,0.358,-1.684,-0.295,-1.396,0.439,-3.413,-8.044,2.278,0.155,-0.126,0.169,-0.244,0.090,0.141,-0.116,0.044,1.274,6.873,6.275,3.059,9.510,3.059,9.510
12.665,-0.345,-0.520,-0.625,-0.297,-1.403,0.449,-3.420,-8.075,2.288,-0.329,-0.663,-0.147,-0.246,0.094,0.143,-0.114,0.031,1.278,6.873,6.275,3.059,9.510,3.059,9.510
12.691,0.020,-1.036,-0.298,-0.302,-1.416,0.460,-3.431,-8.127,2.305,-0.304,-0.594,-0.217,-0.248,0.094,0.144,-0.096,0.014,1.297,6.873,6.275,3.059,9.510,3.059,9.510
12.716,-0.450,0.191,-1.218,-0.305,-1.423,0.463,-3.437,-8.155,2.314,-0.100,-0.483,-0.205,-0.250,0.093,0.144,-0.093,0.012,1.299,6.873,6.275,3.059,9.510,3.059,9.510
12.740,0.124,-0.179,-0.837,-0.308,-1.430,0.464,-3.443,-8.185,2.324,0.231,-0.358,-0.099,-0.253,0.089,0.143,-0.095,0.002,1.299,6.873,6.275,3.059,9.510,3.059,9.510
12.765,0.102,0.518,-1.954,-0.310,-1.435,0.462,-3.449,-8.214,2.333,0.357,-0.371,-0.048,-0.254,0.086,0.142,-0.102,-0.003,1.297,6.873,6.275,3.059,9.510,3.059,9.510
12.791,0.376,1.324,-2.602,-0.313,-1.440,0.448,-3.461,-8.270,2.351,0.442,-0.136,0.002,-0.253,0.082,0.141,-0.132,-0.013,1.281,6.873,6.275,3.059,9.510,3.059,9.510
12.817,0.272,1.488,-2.524,-0.314,-1.438,0.434,-3.468,-8.299,2.360,0.347,-0.064,0.021,-0.252,0.079,0.141,-0.138,-0.014,1.276,6.873,6.275,3.059,9.510,3.059,9.510
12.843,0.225,1.075,-1.984,-0.314,-1.434,0.415,-3.475,-8.330,2.369,-0.222,-0.144,-0.165,-0.250,0.073,0.140,-0.151,-0.015,1.270,6.873,6.275,3.059,9.510,3.059,9.510
12.871,-0.315,0.185,-0.082,-0.314,-1.423,0.381,-3.487,-8.384,2.384,-0.421,-0.145,-0.259,-0.250,0.070,0.138,-0.139,-0.016,1.280,6.873,6.275,3.059,9.510,3.059,9.510
12.899,-0.800,-0.180,0.730,-0.315,-1.418,0.366,-3.493,-8.413,2.392,-0.509,-0.050,-0.305,-0.250,0.068,0.137,-0.129,-0.016,1.284,6.873,6.275,3.059,9.510,3.059,9.510
12.928,-0.999,-0.329,1.178,-0.317,-1.413,0.355,-3.499,-8.441,2.399,-0.326,0.226,-0.149,-0.254,0.063,0.133,-0.117,-0.007,1.279,7.368,6.342,3.199,9.990,3.199,9.990
12.958,-0.464,-0.510,1.835,-0.327,-1.408,0.341,-3.512,-8.499,2.413,-0.068,0.349,0.013,-0.257,0.062,0.131,-0.107,0.007,1.283,7.368,6.342,3.199,9.990,3.199,9.990
12.986,0.490,-0.369,1.693,-0.331,-1.407,0.341,-3.519,-8.526,2.420,0.541,0.040,0.110,-0.260,0.061,0.127,-0.112,0.013,1.275,7.368,6.342,3.199,9.990,3.199,9.990
13.016,1.089,0.044,0.030,-0.336,-1.406,0.347,-3.532,-8.582,2.433,0.790,-0.109,0.092,-0.259,0.061,0.126,-0.141,0.005,1.256,7.368,6.342,3.199,9.990,3.199,9.990
13.044,1.884,0.024,-0.308,-0.334,-1.406,0.350,-3.539,-8.610,2.440,0.600,-0.302,-0.089,-0.255,0.060,0.125,-0.160,-0.016,1.253,7.368,6.342,3.199,9.990,3.199,9.990
13.075,-0.519,-1.950,3.099,-0.322,-1.408,0.360,-3.552,-8.666,2.455,-0.145,-0.718,-0.468,-0.251,0.058,0.124,-0.158,-0.033,1.260,7.368,6.342,3.199,9.990,3.199,9.990
13.104,-2.111,-2.313,2.740,-0.319,-1.415,0.373,-3.558,-8.696,2.462,-1.422,-0.139,-1.130,-0.249,0.052,0.117,-0.137,-0.044,1.274,7.368,6.342,3.199,9.990,3.199,9.990
13.134,-0.240,-0.962,0.906,-0.323,-1.435,0.404,-3.571,-8.752,2.477,-1.146,0.546,-0.639,-0.253,0.049,0.111,-0.077,-0.019,1.304,7.368,6.342,3.199,9.990,3.199,9.990
13.163,1.293,-0.461,0.558,-0.325,-1.448,0.422,-3.578,-8.783,2.486,0.070,0.302,0.261,-0.262,0.048,0.100,-0.064,-0.016,1.300,7.368,6.342,3.199,9.990,3.199,9.990
13.194,1.362,-0.223,-0.558,-0.320,-1.469,0.451,-3.591,-8.840,2.504,0.520,-0.312,-0.012,-0.266,0.048,0.096,-0.074,-0.031,1.296,7.368,6.342,3.199,9.990,3.199,9.990
13.223,0.188,0.245,-1.512,-0.315,-1.478,0.461,-3.597,-8.870,2.513,0.221,0.081,-0.530,-0.269,0.046,0.087,-0.089,-0.042,1.293,7.368,6.342,3.199,9.990,3.199,9.990
13.253,0.170,0.805,-2.217,-0.305,-1.491,0.468,-3.609,-8.929,2.531,-0.064,0.553,-0.275,-0.269,0.045,0.082,-0.094,-0.024,1.284,7.368,6.342,3.199,9.990,3.199,9.990
13.279,0.579,1.166,-2.473,-0.301,-1.494,0.464,-3.615,-8.957,2.540,-0.144,0.744,-0.149,-0.270,0.046,0.077,-0.101,-0.014,1.276,7.368,6.342,3.199,9.990,3.199,9.990
13.307,0.602,1.423,-2.423,-0.295,-1.494,0.456,-3.621,-8.989,2.550,-0.020,0.561,-0.268,-0.272,0.051,0.068,-0.099,0.001,1.271,7.368,6.342,3.199,9.990,3.199,9.990
13.334,0.205,1.038,-2.082,-0.284,-1.487,0.429,-3.633,-9.047,2.567,0.062,0.292,-0.424,-0.273,0.055,0.063,-0.112,0.017,1.257,7.368,6.342,3.199,9.990,3.199,9.990
13.360,0.077,0.665,-1.534,-0.278,-1.481,0.411,-3.639,-9.078,2.576,0.009,-0.031,-0.508,-0.274,0.062,0.052,-0.118,0.020,1.250,7.368,6.342,3.199,9.990,3.199,9.990
13.386,-0.097,0.420,-0.706,-0.273,-1.475,0.394,-3.644,-9.108,2.584,-0.099,-0.071,-0.519,-0.274,0.065,0.046,-0.118,0.021,1.250,7.368,6.342,3.199,9.990,3.199,9.990
13.414,-0.379,-0.442,0.944,-0.266,-1.463,0.363,-3.655,-9.165,2.599,-0.178,-0.155,-0.518,-0.275,0.067,0.039,-0.112,0.022,1.254,7.368,6.342,3.199,9.990,3.199,9.990
13.439,0.057,-0.422,1.712,-0.263,-1.460,0.353,-3.660,-9.194,2.606,-0.202,-0.238,-0.443,-0.276,0.069,0.030,-0.107,0.016,1.260,7.868,6.361,3.355,10.465,3.355,10.465
13.466,0.325,-0.269,1.681,-0.261,-1.457,0.348,-3.665,-9.225,2.613,0.079,0.166,-0.230,-0.278,0.071,0.018,-0.105,0.013,1.262,7.868,6.361,3.355,10.465,3.355,10.465
13.494,-0.626,0.443,0.519,-0.257,-1.452,0.345,-3.676,-9.282,2.627,0.285,0.632,-0.166,-0.279,0.073,0.011,-0.115,0.031,1.243,7.868,6.361,3.355,10.465,3.355,10.465
13.519,-0.348,0.329,0.763,-0.257,-1.449,0.345,-3.681,-9.311,2.634,0.385,0.665,-0.083,-0.279,0.076,0.005,-0.126,0.047,1.230,7.868,6.361,3.355,10.465,3.355,10.465
13.545,1.211,-0.317,1.400,-0.256,-1.446,0.348,-3.686,-9.340,2.641,0.430,-0.506,-0.076,-0.276,0.082,-0.006,-0.135,0.052,1.227,7.868,6.361,3.355,10.465,3.355,10.465
13.571,-0.788,-2.357,3.697,-0.247,-1.446,0.367,-3.696,-9.399,2.655,0.195,-1.239,-0.436,-0.274,0.083,-0.011,-0.143,0.004,1.240,7.868,6.361,3.355,10.465,3.355,10.465
13.596,-1.844,-2.465,2.737,-0.246,-1.452,0.383,-3.701,-9.426,2.662,-0.216,-1.205,-0.877,-0.273,0.081,-0.017,-0.125,-0.006,1.260,7.868,6.361,3.355,10.465,3.355,10.465
13.621,-1.533,-1.402,1.655,-0.248,-1.461,0.402,-3.706,-9.455,2.670,0.012,0.043,-0.286,-0.271,0.075,-0.032,-0.120,-0.015,1.256,7.868,6.361,3.355,10.465,3.355,10.465
13.646,-0.490,-0.708,0.254,-0.252,-1.472,0.422,-3.711,-9.485,2.678,0.396,0.073,0.150,-0.269,0.071,-0.038,-0.114,-0.009,1.256,7.868,6.361,3.355,10.465,3.355,10.465
13.672,-1.055,-0.238,-1.928,-0.263,-1.492,0.450,-3.721,-9.544,2.696,0.545,-0.272,0.075,-0.267,0.069,-0.044,-0.128,0.000,1.246,7.868,6.361,3.355,10.465,3.355,10.465
13.698,-1.356,-0.647,-1.381,-0.271,-1.502,0.458,-3.727,-9.575,2.705,0.238,-0.442,-0.075,-0.265,0.065,-0.050,-0.133,-0.008,1.245,7.868,6.361,3.355,10.465,3.355,10.465
13.723,-1.194,-0.851,-0.773,-0.281,-1.512,0.461,-3.732,-9.606,2.715,-0.469,-0.094,0.064,-0.261,0.058,-0.059,-0.120,-0.001,1.251,7.868,6.361,3.355,10.465,3.355,10.465
13.749,-0.969,-0.806,-0.614,-0.291,-1.523,0.464,-3.738,-9.634,2.723,-0.483,-0.071,0.206,-0.261,0.054,-0.063,-0.110,-0.003,1.258,7.868,6.361,3.355,10.465,3.355,10.465
13.777,-0.609,0.115,-1.077,-0.314,-1.544,0.464,-3.750,-9.696,2.742,-0.334,-0.060,0.345,-0.261,0.051,-0.066,-0.090,0.001,1.272,7.868,6.361,3.355,10.465,3.355,10.465
13.804,-0.162,0.592,-1.693,-0.325,-1.552,0.460,-3.756,-9.727,2.751,0.187,-0.022,0.528,-0.263,0.045,-0.069,-0.092,0.002,1.274,7.868,6.361,3.355,10.465,3.355,10.465
13.831,0.631,1.181,-2.466,-0.343,-1.562,0.443,-3.769,-9.789,2.769,0.380,-0.103,0.577,-0.263,0.042,-0.068,-0.113,-0.010,1.267,7.868,6.361,3.355,10.465,3.355,10.465
13.857,0.342,0.895,-2.604,-0.349,-1.563,0.427,-3.777,-9.822,2.778,0.362,-0.239,0.268,-0.262,0.039,-0.067,-0.120,-0.016,1.269,7.868,6.361,3.355,10.465,3.355,10.465
13.883,-0.626,0.315,-1.782,-0.354,-1.563,0.410,-3.783,-9.852,2.786,-0.271,0.260,0.075,-0.261,0.034,-0.064,-0.122,-0.009,1.273,7.868,6.361,3.355,10.465,3.355,10.465
13.913,-0.134,-0.040,-0.205,-0.368,-1.562,0.375,-3.798,-9.914,2.802,-0.249,0.434,0.260,-0.261,0.033,-0.062,-0.111,0.005,1.282,7.868,6.361,3.355,10.465,3.355,10.465
13.943,0.213,0.358,-0.193,-0.374,-1.562,0.359,-3.806,-9.947,2.810,0.225,0.415,0.453,-0.261,0.033,-0.057,-0.111,0.014,1.284,8.367,6.330,3.497,10.944,3.497,10.944
13.972,0.193,-0.209,0.740,-0.384,-1.560,0.334,-3.820,-10.008,2.823,0.308,0.145,0.343,-0.260,0.034,-0.053,-0.125,0.023,1.271,8.367,6.330,3.497,10.944,3.497,10.944
14.005,0.674,-0.624,1.535,-0.388,-1.560,0.325,-3.829,-10.042,2.831,0.247,-0.083,0.409,-0.258,0.036,-0.045,-0.127,0.014,1.286,8.367,6.330,3.497,10.944,3.497,10.944
14.036,1.180,-0.987,2.537,-0.390,-1.564,0.321,-3.844,-10.103,2.843,0.286,0.238,0.472,-0.256,0.037,-0.041,-0.132,0.006,1.289,8.367,6.330,3.497,10.944,3.497,10.944
14.067,1.974,-0.540,4.245,-0.386,-1.568,0.329,-3.852,-10.134,2.850,0.356,-0.412,0.283,-0.251,0.039,-0.030,-0.140,0.010,1.288,8.367,6.330,3.497,10.944,3.497,10.944
14.096,0.657,-2.638,3.934,-0.371,-1.582,0.366,-3.867,-10.197,2.863,0.122,-0.905,-0.247,-0.248,0.039,-0.025,-0.144,-0.028,1.305,8.367,6.330,3.497,10.944,3.497,10.944
14.126,-1.122,-1.905,1.699,-0.364,-1.594,0.392,-3.874,-10.229,2.871,-0.033,1.216,-0.390,-0.242,0.037,-0.019,-0.131,-0.017,1.322,8.367,6.330,3.497,10.944,3.497,10.944
14.154,0.967,-0.304,-0.136,-0.355,-1.623,0.442,-3.889,-10.293,2.888,0.018,1.504,0.216,-0.240,0.040,-0.017,-0.127,0.029,1.318,8.367,6.330,3.497,10.944,3.497,10.944
14.186,2.880,0.173,0.037,-0.348,-1.636,0.462,-3.895,-10.324,2.896,0.181,-0.072,0.448,-0.236,0.050,-0.012,-0.130,0.043,1.315,8.367,6.330,3.497,10.944,3.497,10.944
14.216,1.132,0.193,-1.243,-0.320,-1.658,0.495,-3.909,-10.392,2.916,0.099,-0.425,0.022,-0.233,0.054,-0.008,-0.138,0.006,1.321,8.367,6.330,3.497,10.944,3.497,10.944
14.245,0.274,0.143,-0.980,-0.306,-1.667,0.505,-3.915,-10.425,2.926,-0.446,0.356,-0.451,-0.230,0.060,-0.004,-0.135,0.002,1.332,8.367,6.330,3.497,10.944,3.497,10.944
14.275,0.651,1.017,-2.202,-0.278,-1.679,0.515,-3.927,-10.490,2.946,-0.439,0.597,-0.348,-0.230,0.063,-0.003,-0.127,0.017,1.335,8.367,6.330,3.497,10.944,3.497,10.944
14.304,0.857,1.578,-3.055,-0.265,-1.680,0.512,-3.932,-10.524,2.956,-0.050,0.683,-0.169,-0.232,0.074,-0.003,-0.121,0.031,1.336,8.367,6.330,3.497,10.944,3.497,10.944
14.335,0.688,1.877,-3.377,-0.236,-1.674,0.489,-3.942,-10.591,2.976,0.054,0.583,-0.214,-0.232,0.079,-0.004,-0.143,0.053,1.314,8.367,6.330,3.497,10.944,3.497,10.944
14.365,0.621,1.380,-2.671,-0.222,-1.665,0.468,-3.947,-10.626,2.986,-0.123,0.159,-0.340,-0.234,0.092,-0.006,-0.158,0.059,1.297,8.367,6.330,3.497,10.944,3.497,10.944
14.394,0.522,0.700,-0.774,-0.195,-1.646,0.424,-3.955,-10.691,3.004,-0.210,-0.027,-0.363,-0.235,0.099,-0.009,-0.157,0.060,1.300,8.367,6.330,3.497,10.944,3.497,10.944
14.421,0.542,0.387,0.049,-0.181,-1.635,0.402,-3.959,-10.725,3.012,-0.236,-0.202,-0.345,-0.236,0.104,-0.012,-0.152,0.057,1.303,8.367,6.330,3.497,10.944,3.497,10.944
14.453,0.142,0.242,0.922,-0.156,-1.615,0.368,-3.966,-10.790,3.028,-0.200,-0.272,-0.318,-0.239,0.112,-0.017,-0.145,0.043,1.308,8.867,6.325,3.629,11.426,3.629,11.426
14.482,-0.137,0.344,1.054,-0.146,-1.607,0.358,-3.969,-10.821,3.035,-0.126,0.495,-0.162,-0.243,0.117,-0.025,-0.145,0.049,1.301,8.867,6.325,3.629,11.426,3.629,11.426
14.511,-0.401,0.486,0.816,-0.129,-1.588,0.343,-3.974,-10.886,3.049,0.028,0.514,-0.076,-0.246,0.122,-0.028,-0.148,0.072,1.290,8.867,6.325,3.629,11.426,3.629,11.426
14.539,0.168,0.210,1.875,-0.123,-1.579,0.341,-3.977,-10.918,3.056,0.224,0.340,0.009,-0.247,0.126,-0.032,-0.153,0.079,1.284,8.867,6.325,3.629,11.426,3.629,11.426
14.569,0.737,-0.545,3.071,-0.116,-1.571,0.344,-3.979,-10.951,3.063,0.600,-0.298,-0.325,-0.248,0.134,-0.037,-0.158,0.070,1.290,8.867,6.325,3.629,11.426,3.629,11.426
14.598,-1.440,-1.013,1.241,-0.104,-1.564,0.361,-3.984,-11.011,3.076,0.853,-0.400,-0.731,-0.246,0.137,-0.041,-0.179,0.070,1.275,8.867,6.325,3.629,11.426,3.629,11.426
14.627,-1.212,-1.635,1.815,-0.103,-1.565,0.375,-3.986,-11.045,3.084,0.092,-0.996,-1.025,-0.240,0.138,-0.053,-0.192,0.061,1.270,8.867,6.325,3.629,11.426,3.629,11.426
14.656,-1.460,-2.487,2.664,-0.105,-1.577,0.410,-3.990,-11.106,3.100,-0.472,-0.863,-0.993,-0.237,0.136,-0.061,-0.168,0.035,1.300,8.867,6.325,3.629,11.426,3.629,11.426
14.687,-1.317,-1.786,1.510,-0.111,-1.589,0.431,-3.992,-11.136,3.108,-0.268,0.064,-0.415,-0.234,0.129,-0.080,-0.145,0.038,1.303,8.867,6.325,3.629,11.426,3.629,11.426
14.717,-0.265,-0.263,-1.306,-0.125,-1.617,0.473,-3.997,-11.200,3.126,0.093,0.367,0.084,-0.234,0.126,-0.088,-0.137,0.054,1.299,8.867,6.325,3.629,11.426,3.629,11.426
14.746,-0.209,0.389,-2.534,-0.132,-1.629,0.486,-3.999,-11.233,3.135,0.298,0.060,0.382,-0.232,0.123,-0.103,-0.144,0.060,1.288,8.867,6.325,3.629,11.426,3.629,11.426
14.777,0.907,0.494,-1.884,-0.143,-1.648,0.496,-4.005,-11.298,3.155,0.049,-0.197,0.418,-0.231,0.122,-0.107,-0.157,0.055,1.288,8.867,6.325,3.629,11.426,3.629,11.426
14.804,0.521,0.087,-0.920,-0.146,-1.655,0.494,-4.008,-11.331,3.165,-0.476,-0.272,0.210,-0.229,0.118,-0.113,-0.152,0.044,1.303,8.867,6.325,3.629,11.426,3.629,11.426
14.830,-0.358,-0.086,-0.810,-0.150,-1.667,0.488,-4.014,-11.398,3.185,-0.470,-0.132,0.158,-0.230,0.116,-0.115,-0.142,0.038,1.314,8.867,6.325,3.629,11.426,3.629,11.426
14.855,-0.114,0.556,-1.770,-0.153,-1.672,0.482,-4.017,-11.433,3.195,-0.232,0.090,0.285,-0.231,0.114,-0.117,-0.127,0.041,1.322,8.867,6.325,3.629,11.426,3.629,11.426
14.882,0.242,1.168,-2.518,-0.155,-1.675,0.473,-4.020,-11.465,3.204,0.301,0.307,0.545,-0.233,0.112,-0.116,-0.141,0.046,1.307,8.867,6.325,3.629,11.426,3.629,11.426
14.911,0.417,1.332,-1.842,-0.157,-1.672,0.444,-4.026,-11.532,3.222,0.269,0.204,0.506,-0.233,0.112,-0.115,-0.167,0.050,1.283,8.867,6.325,3.629,11.426,3.629,11.426
14.941,0.499,1.046,-1.060,-0.156,-1.666,0.424,-4.029,-11.568,3.232,0.005,0.020,0.253,-0.232,0.112,-0.110,-0.170,0.051,1.294,9.363,6.267,3.771,11.906,3.771,11.906
14.973,-0.037,0.370,0.215,-0.153,-1.654,0.393,-4.035,-11.632,3.247,-0.039,-0.007,0.156,-0.232,0.113,-0.107,-0.176,0.046,1.294,9.363,6.267,3.771,11.906,3.771,11.906
15.001,-0.440,-0.034,1.073,-0.152,-1.647,0.379,-4.038,-11.666,3.255,-0.033,-0.010,0.011,-0.232,0.113,-0.101,-0.176,0.048,1.302,9.363,6.267,3.771,11.906,3.771,11.906
15.029,-0.782,-0.320,1.528,-0.153,-1.642,0.370,-4.041,-11.697,3.263,0.128,-0.078,0.031,-0.232,0.113,-0.099,-0.175,0.048,1.302,9.363,6.267,3.771,11.906,3.771,11.906
15.057,0.013,-0.508,2.173,-0.157,-1.634,0.363,-4.048,-11.765,3.278,0.365,-0.219,0.098,-0.231,0.113,-0.097,-0.183,0.045,1.297,9.363,6.267,3.771,11.906,3.771,11.906
15.087,-0.277,-0.787,1.864,-0.159,-1.633,0.367,-4.051,-11.797,3.285,0.638,-0.024,-0.104,-0.228,0.111,-0.093,-0.189,0.039,1.304,9.363,6.267,3.771,11.906,3.771,11.906
15.117,-1.750,-0.418,-0.409,-0.169,-1.635,0.379,-4.057,-11.861,3.299,0.577,0.396,-0.005,-0.224,0.111,-0.091,-0.210,0.064,1.280,9.363,6.267,3.771,11.906,3.771,11.906
15.146,1.239,0.998,0.684,-0.176,-1.636,0.385,-4.061,-11.894,3.307,0.079,-0.386,0.111,-0.215,0.111,-0.087,-0.220,0.072,1.285,9.363,6.267,3.771,11.906,3.771,11.906
15.178,0.450,-2.296,2.467,-0.179,-1.639,0.404,-4.068,-11.961,3.323,-0.690,-0.885,-0.615,-0.212,0.110,-0.086,-0.202,0.026,1.323,9.363,6.267,3.771,11.906,3.771,11.906
15.209,-1.245,-2.647,1.072,-0.179,-1.648,0.419,-4.072,-11.997,3.332,-1.255,0.465,-0.944,-0.211,0.106,-0.089,-0.158,0.033,1.346,9.363,6.267,3.771,11.906,3.771,11.906
15.238,1.661,-0.956,0.803,-0.181,-1.670,0.445,-4.079,-12.058,3.348,-1.084,0.894,-0.024,-0.215,0.105,-0.093,-0.102,0.048,1.379,9.363,6.267,3.771,11.906,3.771,11.906
15.267,2.947,-0.163,1.115,-0.177,-1.685,0.461,-4.082,-12.094,3.358,-0.415,0.079,0.418,-0.226,0.108,-0.097,-0.087,0.058,1.368,9.363,6.267,3.771,11.906,3.771,11.906
15.294,0.681,0.411,-0.898,-0.159,-1.707,0.488,-4.089,-12.160,3.376,-0.169,-0.070,0.065,-0.231,0.109,-0.098,-0.076,0.039,1.381,9.363,6.267,3.771,11.906,3.771,11.906
15.320,0.145,0.734,-1.802,-0.148,-1.715,0.496,-4.092,-12.194,3.386,-0.132,0.574,0.171,-0.242,0.113,-0.100,-0.079,0.044,1.379,9.363,6.267,3.771,11.906,3.771,11.906
15.347,0.203,1.109,-2.243,-0.139,-1.720,0.500,-4.095,-12.228,3.396,-0.100,0.768,0.359,-0.247,0.116,-0.099,-0.076,0.055,1.385,9.363,6.267,3.771,11.906,3.771,11.906
15.375,0.894,1.936,-2.308,-0.120,-1.722,0.494,-4.100,-12.297,3.416,0.028,0.728,0.472,-0.252,0.121,-0.099,-0.089,0.082,1.376,9.363,6.267,3.771,11.906,3.771,11.906
15.401,1.119,1.961,-2.021,-0.109,-1.717,0.484,-4.102,-12.332,3.426,0.313,0.177,0.264,-0.259,0.131,-0.095,-0.112,0.081,1.359,9.363,6.267,3.771,11.906,3.771,11.906
15.427,1.108,1.984,-1.842,-0.097,-1.708,0.472,-4.104,-12.366,3.435,0.362,-0.147,0.021,-0.261,0.138,-0.092,-0.119,0.084,1.359,9.861,6.220,3.879,12.394,3.879,12.394
15.456,-0.429,0.865,-0.667,-0.073,-1.685,0.442,-4.108,-12.435,3.454,0.280,-0.334,-0.176,-0.262,0.140,-0.090,-0.144,0.073,1.338,9.861,6.220,3.879,12.394,3.879,12.394
15.482,-0.494,0.462,0.172,-0.064,-1.673,0.429,-4.109,-12.467,3.462,-0.035,-0.231,-0.167,-0.263,0.145,-0.088,-0.151,0.071,1.335,9.861,6.220,3.879,12.394,3.879,12.394
15.509,-0.014,0.499,0.944,-0.057,-1.662,0.418,-4.110,-12.501,3.471,-0.060,-0.131,-0.027,-0.264,0.147,-0.088,-0.150,0.067,1.338,9.861,6.220,3.879,12.394,3.879,12.394
15.535,0.047,0.136,2.070,-0.043,-1.639,0.406,-4.112,-12.567,3.487,-0.002,-0.159,0.033,-0.264,0.148,-0.087,-0.153,0.055,1.340,9.861,6.220,3.879,12.394,3.879,12.394
15.560,-0.342,-0.158,1.867,-0.036,-1.628,0.407,-4.113,-12.603,3.496,0.197,-0.226,-0.187,-0.265,0.148,-0.087,-0.156,0.050,1.341,9.861,6.220,3.879,12.394,3.879,12.394
15.586,-0.431,-0.287,1.483,-0.032,-1.619,0.411,-4.114,-12.633,3.504,0.347,-0.012,-0.128,-0.265,0.148,-0.087,-0.159,0.046,1.347,9.861,6.220,3.879,12.394,3.879,12.394
15.615,-1.101,-0.191,0.552,-0.027,-1.607,0.424,-4.115,-12.696,3.520,0.454,0.228,-0.009,-0.263,0.148,-0.088,-0.173,0.054,1.331,9.861,6.220,3.879,12.394,3.879,12.394
15.643,-1.126,-0.353,0.258,-0.028,-1.602,0.432,-4.116,-12.728,3.529,0.457,0.209,0.081,-0.259,0.149,-0.088,-0.181,0.070,1.315,9.861,6.220,3.879,12.394,3.879,12.394
15.669,0.094,-1.063,1.708,-0.033,-1.597,0.448,-4.117,-12.792,3.546,0.371,-0.199,0.173,-0.256,0.150,-0.088,-0.190,0.074,1.308,9.861,6.220,3.879,12.394,3.879,12.394
15.696,-0.125,-2.037,2.078,-0.035,-1.599,0.461,-4.117,-12.826,3.556,-0.298,-1.104,-0.128,-0.253,0.149,-0.088,-0.184,0.045,1.320,9.861,6.220,3.879,12.394,3.879,12.394
15.723,-0.465,-2.015,1.447,-0.037,-1.605,0.475,-4.118,-12.856,3.565,-0.412,0.035,0.184,-0.249,0.145,-0.088,-0.160,0.035,1.349,9.861,6.220,3.879,12.394,3.879,12.394
15.748,0.339,-1.259,0.838,-0.039,-1.613,0.491,-4.119,-12.890,3.575,-0.235,0.189,0.442,-0.249,0.143,-0.088,-0.151,0.036,1.351,9.861,6.220,3.879,12.394,3.879,12.394
15.776,1.157,-0.931,0.755,-0.039,-1.633,0.521,-4.120,-12.953,3.595,-0.106,-0.193,0.270,-0.249,0.141,-0.086,-0.139,0.024,1.362,9.861,6.220,3.879,12.394,3.879,12.394
15.802,0.538,-0.887,0.277,-0.036,-1.644,0.536,-4.121,-12.986,3.605,-0.151,-0.359,-0.202,-0.250,0.135,-0.084,-0.129,0.009,1.373,9.861,6.220,3.879,12.394,3.879,12.394
15.834,-0.138,-0.574,-0.717,-0.029,-1.668,0.562,-4.123,-13.054,3.628,-0.261,0.024,-0.147,-0.251,0.132,-0.084,-0.114,0.007,1.385,9.861,6.220,3.879,12.394,3.879,12.394
15.861,-0.043,-0.280,-1.033,-0.027,-1.679,0.571,-4.123,-13.087,3.639,-0.291,0.431,0.099,-0.255,0.128,-0.083,-0.107,0.013,1.388,9.861,6.220,3.879,12.394,3.879,12.394
15.886,0.117,0.084,-1.547,-0.024,-1.690,0.576,-4.124,-13.123,3.651,-0.116,0.519,0.197,-0.257,0.128,-0.083,-0.100,0.022,1.387,9.861,6.220,3.879,12.394,3.879,12.394
15.913,0.282,0.979,-2.505,-0.020,-1.705,0.574,-4.125,-13.187,3.673,0.116,0.550,0.274,-0.259,0.128,-0.082,-0.107,0.044,1.373,9.861,6.220,3.879,12.394,3.879,12.394
15.939,0.536,1.379,-2.713,-0.017,-1.709,0.565,-4.125,-13.222,3.684,0.308,0.464,0.325,-0.260,0.130,-0.080,-0.114,0.053,1.366,10.360,6.179,3.978,12.884,3.978,12.884
15.962,0.774,1.445,-2.710,-0.012,-1.709,0.551,-4.125,-13.257,3.696,0.379,0.017,0.233,-0.260,0.135,-0.076,-0.136,0.052,1.351,10.360,6.179,3.978,12.884,3.978,12.884
15.987,0.818,1.404,-2.459,-0.007,-1.706,0.533,-4.125,-13.293,3.708,0.255,-0.127,0.101,-0.259,0.136,-0.074,-0.144,0.052,1.348,10.360,6.179,3.978,12.884,3.978,12.884
16.014,0.597,1.016,-1.134,0.005,-1.696,0.495,-4.125,-13.358,3.727,0.083,-0.098,-0.001,-0.258,0.138,-0.072,-0.162,0.043,1.339,10.360,6.179,3.978,12.884,3.978,12.884
16.039,0.381,0.725,-0.250,0.013,-1.688,0.475,-4.125,-13.392,3.737,-0.061,-0.011,-0.073,-0.257,0.139,-0.070,-0.167,0.040,1.338,10.360,6.179,3.978,12.884,3.978,12.884
16.063,-0.072,0.079,0.946,0.020,-1.680,0.457,-4.125,-13.427,3.747,-0.130,-0.066,-0.233,-0.256,0.141,-0.067,-0.164,0.040,1.336,10.360,6.179,3.978,12.884,3.978,12.884
16.088,-0.162,-0.160,1.397,0.025,-1.673,0.444,-4.124,-13.459,3.755,0.002,-0.184,-0.260,-0.255,0.142,-0.067,-0.161,0.039,1.339,10.360,6.179,3.978,12.884,3.978,12.884
16.114,0.066,0.022,1.141,0.035,-1.662,0.428,-4.123,-13.526,3.773,0.175,-0.221,-0.250,-0.255,0.142,-0.067,-0.165,0.031,1.339,10.360,6.179,3.978,12.884,3.978,12.884
16.139,-0.195,0.117,1.009,0.039,-1.657,0.425,-4.123,-13.561,3.781,0.279,-0.171,-0.200,-0.254,0.142,-0.067,-0.171,0.028,1.330,10.360,6.179,3.978,12.884,3.978,12.884
16.164,-0.694,0.161,0.757,0.041,-1.652,0.424,-4.122,-13.594,3.790,0.154,-0.060,-0.276,-0.251,0.141,-0.069,-0.178,0.032,1.321,10.360,6.179,3.978,12.884,3.978,12.884
16.189,1.610,0.140,1.203,0.046,-1.645,0.426,-4.120,-13.658,3.807,0.094,-0.067,-0.257,-0.250,0.140,-0.071,-0.181,0.032,1.313,10.360,6.179,3.978,12.884,3.978,12.884
16.215,0.277,-1.506,3.232,0.051,-1.643,0.432,-4.119,-13.691,3.815,-0.114,-0.467,-0.319,-0.248,0.139,-0.073,-0.181,0.008,1.318,10.360,6.179,3.978,12.884,3.978,12.884
16.239,-0.894,-3.085,4.142,0.055,-1.645,0.445,-4.118,-13.724,3.824,-0.748,-1.041,-0.831,-0.248,0.136,-0.077,-0.150,-0.007,1.325,10.360,6.179,3.978,12.884,3.978,12.884
16.266,-2.396,-3.320,2.908,0.055,-1.655,0.464,-4.117,-13.758,3.833,-1.401,-0.116,-1.376,-0.253,0.128,-0.088,-0.122,-0.023,1.335,10.360,6.179,3.978,12.884,3.978,12.884
16.291,-0.370,-1.676,0.859,0.044,-1.684,0.506,-4.115,-13.823,3.852,-0.848,0.688,-0.505,-0.259,0.124,-0.096,-0.066,0.011,1.355,10.360,6.179,3.978,12.884,3.978,12.884
16.316,1.188,-0.611,0.686,0.038,-1.700,0.527,-4.114,-13.857,3.863,0.376,0.299,0.666,-0.266,0.121,-0.104,-0.068,0.006,1.345,10.360,6.179,3.978,12.884,3.978,12.884
16.346,1.724,-0.120,-0.109,0.035,-1.717,0.548,-4.113,-13.893,3.874,0.634,-0.258,-0.050,-0.273,0.116,-0.115,-0.081,0.002,1.339,10.360,6.179,3.978,12.884,3.978,12.884
16.376,-0.484,0.587,-3.226,0.035,-1.743,0.574,-4.112,-13.961,3.896,0.489,0.123,-0.219,-0.274,0.114,-0.119,-0.104,-0.002,1.326,10.360,6.179,3.978,12.884,3.978,12.884
16.405,-0.548,0.902,-3.581,0.034,-1.753,0.575,-4.111,-14.001,3.909,0.066,0.943,0.026,-0.275,0.113,-0.129,-0.115,0.026,1.312,10.360,6.179,3.978,12.884,3.978,12.884
16.436,0.485,1.409,-2.931,0.031,-1.762,0.559,-4.110,-14.068,3.931,-0.068,0.927,0.217,-0.275,0.116,-0.133,-0.127,0.061,1.288,10.855,6.115,4.109,13.366,4.109,13.366
16.468,0.665,1.753,-2.362,0.031,-1.761,0.543,-4.109,-14.105,3.942,0.020,0.610,0.252,-0.275,0.123,-0.137,-0.126,0.076,1.290,10.855,6.115,4.109,13.366,4.109,13.366
16.498,0.546,1.754,-1.410,0.035,-1.751,0.507,-4.108,-14.171,3.962,0.199,0.288,0.204,-0.275,0.128,-0.139,-0.149,0.088,1.274,10.855,6.115,4.109,13.366,4.109,13.366
16.527,0.652,1.238,-0.823,0.038,-1.741,0.486,-4.107,-14.208,3.973,0.401,-0.695,0.203,-0.274,0.137,-0.140,-0.167,0.077,1.267,10.855,6.115,4.109,13.366,4.109,13.366
16.555,1.167,0.134,1.257,0.048,-1.720,0.451,-4.106,-14.277,3.991,0.418,-0.993,0.192,-0.272,0.138,-0.140,-0.184,0.030,1.274,10.855,6.115,4.109,13.366,4.109,13.366
16.585,1.349,-0.340,2.029,0.057,-1.711,0.440,-4.104,-14.312,4.000,0.452,-1.024,-0.004,-0.267,0.135,-0.139,-0.193,0.007,1.275,10.855,6.115,4.109,13.366,4.109,13.366
16.614,0.126,-0.555,1.346,0.075,-1.697,0.433,-4.102,-14.380,4.018,0.450,-0.610,-0.067,-0.263,0.130,-0.138,-0.207,-0.033,1.275,10.855,6.115,4.109,13.366,4.109,13.366
16.643,-0.326,-0.202,0.540,0.084,-1.693,0.434,-4.100,-14.414,4.026,0.315,0.687,0.046,-0.254,0.122,-0.138,-0.214,-0.029,1.267,10.855,6.115,4.109,13.366,4.109,13.366
16.671,0.348,-0.030,-0.959,0.096,-1.685,0.434,-4.097,-14.479,4.043,0.217,1.018,0.120,-0.249,0.121,-0.138,-0.224,0.002,1.246,10.855,6.115,4.109,13.366,4.109,13.366
16.701,0.520,-0.384,0.170,0.102,-1.682,0.432,-4.095,-14.513,4.052,-0.235,0.463,-0.164,-0.241,0.124,-0.137,-0.225,0.021,1.237,10.855,6.115,4.109,13.366,4.109,13.366
16.729,-0.683,-3.691,3.846,0.112,-1.684,0.438,-4.090,-14.580,4.069,-0.759,-0.601,-0.744,-0.239,0.126,-0.137,-0.208,0.031,1.243,10.855,6.115,4.109,13.366,4.109,13.366
16.759,-1.452,-3.714,3.444,0.114,-1.697,0.452,-4.088,-14.616,4.079,-1.316,-1.172,-1.158,-0.239,0.126,-0.140,-0.146,0.012,1.278,10.855,6.115,4.109,13.366,4.109,13.366
16.789,-1.842,-2.795,2.715,0.113,-1.713,0.468,-4.086,-14.648,4.087,-1.029,0.130,-0.605,-0.245,0.121,-0.149,-0.118,-0.001,1.293,10.855,6.115,4.109,13.366,4.109,13.366
16.819,-0.575,-0.646,0.596,0.104,-1.753,0.510,-4.082,-14.719,4.107,-0.495,0.711,0.100,-0.252,0.120,-0.156,-0.078,0.025,1.307,10.855,6.115,4.109,13.366,4.109,13.366
16.848,-0.380,-0.043,-0.238,0.098,-1.771,0.529,-4.079,-14.755,4.118,0.119,0.332,0.217,-0.262,0.120,-0.164,-0.076,0.042,1.291,10.855,6.115,4.109,13.366,4.109,13.366
16.877,-0.102,0.735,-1.368,0.087,-1.801,0.557,-4.076,-14.824,4.139,0.216,0.065,0.177,-0.267,0.122,-0.168,-0.089,0.051,1.275,10.855,6.115,4.109,13.366,4.109,13.366
16.906,-0.454,0.858,-1.619,0.082,-1.812,0.565,-4.074,-14.860,4.150,0.098,-0.032,0.128,-0.273,0.124,-0.172,-0.093,0.050,1.278,10.855,6.115,4.109,13.366,4.109,13.366
16.937,-0.550,0.749,-1.492,0.070,-1.826,0.571,-4.071,-14.935,4.174,-0.067,0.062,0.315,-0.276,0.125,-0.173,-0.100,0.059,1.269,10.855,6.115,4.109,13.366,4.109,13.366
16.967,-0.295,0.842,-1.431,0.063,-1.830,0.569,-4.070,-14.972,4.185,0.319,0.004,0.611,-0.280,0.127,-0.173,-0.109,0.063,1.271,10.855,6.115,4.109,13.366,4.109,13.366
16.996,0.179,1.208,-2.029,0.052,-1.831,0.556,-4.068,-15.043,4.207,0.566,-0.099,0.594,-0.280,0.128,-0.171,-0.139,0.059,1.249,10.855,6.115,4.109,13.366,4.109,13.366
17.024,0.174,0.997,-1.923,0.047,-1.827,0.545,-4.067,-15.080,4.218,0.571,-0.412,0.402,-0.278,0.128,-0.165,-0.153,0.052,1.252,10.855,6.115,4.109,13.366,4.109,13.366
17.053,0.214,0.131,-0.518,0.041,-1.818,0.516,-4.065,-15.154,4.240,0.363,-0.412,0.310,-0.275,0.127,-0.161,-0.177,0.033,1.248,10.855,6.115,4.109,13.366,4.109,13.366
17.081,0.163,-0.177,0.301,0.038,-1.814,0.504,-4.064,-15.189,4.249,0.103,-0.123,0.225,-0.270,0.123,-0.153,-0.179,0.026,1.255,10.855,6.115,4.109,13.366,4.109,13.366
17.109,-0.012,-0.462,0.679,0.037,-1.811,0.494,-4.063,-15.225,4.259,0.148,-0.117,0.191,-0.267,0.121,-0.148,-0.181,0.023,1.255,10.855,6.115,4.109,13.366,4.109,13.366
17.139,0.053,-0.569,0.959,0.033,-1.807,0.479,-4.062,-15.299,4.279,0.275,-0.253,0.220,-0.264,0.119,-0.144,-0.186,0.014,1.258,10.855,6.115,4.109,13.366,4.109,13.366
17.168,0.389,-0.393,0.668,0.032,-1.808,0.475,-4.061,-15.335,4.289,0.618,-0.648,0.227,-0.257,0.113,-0.136,-0.192,-0.001,1.261,10.855,6.115,4.109,13.366,4.109,13.366
17.197,0.333,0.310,-0.473,0.033,-1.809,0.471,-4.060,-15.406,4.307,0.572,-0.475,0.209,-0.251,0.108,-0.132,-0.218,-0.028,1.256,10.855,6.115,4.109,13.366,4.109,13.366
17.226,0.753,0.330,-1.056,0.036,-1.809,0.467,-4.059,-15.442,4.317,-0.076,0.149,0.076,-0.241,0.100,-0.124,-0.224,-0.030,1.261,10.855,6.115,4.109,13.366,4.109,13.366
17.255,1.781,-0.699,2.151,0.048,-1.808,0.460,-4.058,-15.516,4.336,-0.724,-0.187,-0.206,-0.237,0.096,-0.120,-0.209,-0.049,1.276,10.855,6.115,4.109,13.366,4.109,13.366
17.284,-0.369,-3.102,4.207,0.056,-1.811,0.465,-4.056,-15.552,4.345,-1.844,-0.188,-1.172,-0.238,0.089,-0.117,-0.162,-0.052,1.300,10.855,6.115,4.109,13.366,4.109,13.366
17.313,-0.295,-1.815,2.819,0.066,-1.831,0.492,-4.054,-15.623,4.364,-1.504,0.348,-0.992,-0.244,0.085,-0.120,-0.089,-0.040,1.335,10.855,6.115,4.109,13.366,4.109,13.366
17.342,1.076,-0.908,1.823,0.070,-1.847,0.514,-4.053,-15.664,4.375,-0.169,0.334,0.028,-0.258,0.081,-0.126,-0.072,-0.028,1.323,10.855,6.115,4.109,13.366,4.109,13.366
17.371,0.706,0.454,-0.655,0.082,-1.871,0.552,-4.050,-15.736,4.395,0.334,0.053,-0.090,-0.265,0.081,-0.129,-0.075,-0.029,1.315,10.855,6.115,4.109,13.366,4.109,13.366
17.399,0.023,0.899,-1.911,0.089,-1.880,0.565,-4.048,-15.772,4.406,0.487,-0.038,-0.242,-0.271,0.080,-0.133,-0.091,-0.030,1.304,10.855,6.115,4.109,13.366,4.109,13.366
17.429,-0.284,0.949,-2.186,0.095,-1.886,0.573,-4.046,-15.810,4.417,0.099,0.378,-0.307,-0.278,0.079,-0.140,-0.098,-0.028,1.306,11.351,6.047,4.242,13.849,4.242,13.849
17.459,-0.040,0.890,-2.259,0.104,-1.893,0.577,-4.042,-15.887,4.441,-0.145,0.608,-0.239,-0.283,0.082,-0.146,-0.107,-0.003,1.297,11.351,6.047,4.242,13.849,4.242,13.849
17.489,0.126,0.868,-2.060,0.108,-1.893,0.571,-4.040,-15.927,4.453,-0.133,0.456,-0.217,-0.285,0.085,-0.150,-0.110,0.009,1.293,11.351,6.047,4.242,13.849,4.242,13.849
17.517,0.171,0.964,-1.980,0.115,-1.888,0.551,-4.036,-15.999,4.474,-0.017,0.254,-0.231,-0.288,0.089,-0.155,-0.114,0.024,1.283,11.351,6.047,4.242,13.849,4.242,13.849
17.547,0.484,0.943,-1.669,0.118,-1.883,0.536,-4.033,-16.036,4.485,0.134,-0.059,-0.279,-0.292,0.095,-0.163,-0.116,0.026,1.277,11.351,6.047,4.242,13.849,4.242,13.849
17.577,-0.100,0.891,-0.762,0.128,-1.868,0.502,-4.028,-16.113,4.507,-0.034,-0.094,-0.389,-0.293,0.098,-0.167,-0.127,0.019,1.273,11.351,6.047,4.242,13.849,4.242,13.849
17.605,-2.012,-0.615,0.810,0.130,-1.861,0.487,-4.026,-16.151,4.516,-0.382,-0.120,-0.501,-0.297,0.102,-0.178,-0.119,0.036,1.272,11.351,6.047,4.242,13.849,4.242,13.849
17.632,-0.490,-0.315,2.439,0.124,-1.852,0.470,-4.021,-16.223,4.535,-0.153,-0.314,-0.084,-0.299,0.103,-0.184,-0.110,0.030,1.282,11.351,6.047,4.242,13.849,4.242,13.849
17.658,0.137,0.017,1.807,0.120,-1.849,0.469,-4.018,-16.262,4.545,0.296,-0.326,0.217,-0.301,0.103,-0.188,-0.116,0.023,1.280,11.351,6.047,4.242,13.849,4.242,13.849
17.687,-0.285,0.441,0.746,0.116,-1.846,0.470,-4.016,-16.299,4.554,0.768,0.320,0.200,-0.302,0.104,-0.196,-0.136,0.023,1.261,11.351,6.047,4.242,13.849,4.242,13.849
17.716,0.084,-0.271,1.147,0.109,-1.839,0.476,-4.011,-16.371,4.573,0.469,0.450,0.305,-0.300,0.105,-0.198,-0.160,0.036,1.244,11.351,6.047,4.242,13.849,4.242,13.849
17.745,1.394,-0.841,1.732,0.107,-1.837,0.483,-4.009,-16.409,4.583,0.022,0.231,0.353,-0.295,0.109,-0.201,-0.164,0.045,1.247,11.351,6.047,4.242,13.849,4.242,13.849
17.777,0.775,-2.092,3.008,0.112,-1.839,0.506,-4.005,-16.481,4.602,-0.117,-0.257,0.145,-0.293,0.111,-0.201,-0.154,0.028,1.267,11.351,6.047,4.242,13.849,4.242,13.849
17.806,-0.068,-2.357,2.423,0.116,-1.847,0.525,-4.003,-16.518,4.612,-0.097,-0.093,-0.121,-0.291,0.114,-0.201,-0.135,0.024,1.283,11.351,6.047,4.242,13.849,4.242,13.849
17.835,1.613,-1.172,1.360,0.127,-1.870,0.569,-3.998,-16.592,4.634,0.147,-0.059,0.161,-0.290,0.114,-0.201,-0.126,0.008,1.300,11.351,6.047,4.242,13.849,4.242,13.849
17.864,1.296,-1.070,0.366,0.136,-1.886,0.594,-3.995,-16.635,4.648,0.241,-0.249,-0.191,-0.287,0.115,-0.201,-0.132,0.003,1.299,11.351,6.047,4.242,13.849,4.242,13.849
17.895,-0.138,-0.489,-1.446,0.153,-1.913,0.628,-3.989,-16.706,4.670,0.026,-0.013,-0.308,-0.285,0.114,-0.202,-0.127,-0.001,1.309,11.351,6.047,4.242,13.849,4.242,13.849
17.924,0.106,-0.048,-1.899,0.161,-1.926,0.639,-3.986,-16.744,4.683,-0.155,0.555,-0.122,-0.283,0.115,-0.204,-0.120,0.008,1.318,11.840,5.946,4.368,14.332,4.368,14.332
17.954,-0.098,0.585,-2.319,0.175,-1.949,0.647,-3.979,-16.823,4.709,-0.143,0.595,-0.044,-0.282,0.116,-0.205,-0.117,0.035,1.316,11.840,5.946,4.368,14.332,4.368,14.332
17.982,-0.329,0.764,-2.553,0.181,-1.956,0.643,-3.976,-16.862,4.722,-0.020,0.400,-0.090,-0.281,0.122,-0.208,-0.115,0.045,1.317,11.840,5.946,4.368,14.332,4.368,14.332
18.013,-0.039,1.112,-2.470,0.188,-1.964,0.623,-3.969,-16.939,4.747,0.086,0.285,-0.053,-0.281,0.126,-0.209,-0.122,0.066,1.308,11.840,5.946,4.368,14.332,4.368,14.332
18.042,0.002,1.099,-2.216,0.192,-1.964,0.606,-3.965,-16.978,4.759,0.144,-0.013,-0.004,-0.280,0.134,-0.212,-0.134,0.072,1.294,11.840,5.946,4.368,14.332,4.368,14.332
18.070,-0.186,1.226,-1.948,0.197,-1.957,0.565,-3.957,-17.059,4.783,0.115,-0.072,-0.048,-0.279,0.137,-0.213,-0.137,0.072,1.294,11.840,5.946,4.368,14.332,4.368,14.332
18.098,-0.260,1.349,-1.740,0.198,-1.950,0.542,-3.953,-17.098,4.794,0.035,-0.020,-0.061,-0.278,0.139,-0.214,-0.151,0.075,1.283,11.840,5.946,4.368,14.332,4.368,14.332
18.128,-0.482,1.320,-1.690,0.199,-1.942,0.518,-3.949,-17.137,4.805,-0.232,0.325,-0.149,-0.277,0.144,-0.216,-0.163,0.085,1.271,11.840,5.946,4.368,14.332,4.368,14.332
18.157,-0.517,0.724,-0.559,0.197,-1.921,0.469,-3.941,-17.214,4.825,-0.397,0.494,-0.158,-0.277,0.148,-0.218,-0.157,0.107,1.270,11.840,5.946,4.368,14.332,4.368,14.332
18.186,0.191,0.639,-0.432,0.194,-1.909,0.445,-3.937,-17.254,4.834,-0.060,-0.024,-0.042,-0.279,0.155,-0.220,-0.152,0.115,1.264,11.840,5.946,4.368,14.332,4.368,14.332
18.218,-0.002,-1.171,2.920,0.193,-1.889,0.412,-3.930,-17.326,4.851,-0.004,-0.705,-0.255,-0.280,0.158,-0.222,-0.152,0.093,1.266,11.840,5.946,4.368,14.332,4.368,14.332
18.248,-0.118,-2.221,3.524,0.192,-1.884,0.405,-3.925,-17.368,4.860,0.228,-1.506,-0.693,-0.282,0.157,-0.227,-0.141,0.066,1.281,11.840,5.946,4.368,14.332,4.368,14.332
18.278,0.504,-1.235,2.254,0.192,-1.887,0.411,-3.918,-17.441,4.875,0.447,-1.212,-0.508,-0.282,0.152,-0.231,-0.145,0.011,1.298,11.840,5.946,4.368,14.332,4.368,14.332
18.304,0.711,-1.160,2.288,0.194,-1.892,0.421,-3.914,-17.477,4.883,-0.125,-0.960,-0.319,-0.280,0.138,-0.241,-0.152,-0.009,1.295,11.840,5.946,4.368,14.332,4.368,14.332
18.329,-0.825,-1.847,1.455,0.198,-1.911,0.451,-3.906,-17.553,4.901,-0.478,-0.435,-0.389,-0.280,0.129,-0.245,-0.140,-0.028,1.307,11.840,5.946,4.368,14.332,4.368,14.332
18.354,-0.733,-1.052,-0.169,0.198,-1.924,0.468,-3.902,-17.593,4.910,-0.398,0.334,-0.320,-0.280,0.121,-0.251,-0.115,-0.019,1.323,11.840,5.946,4.368,14.332,4.368,14.332
18.384,0.271,-0.566,-0.853,0.197,-1.936,0.480,-3.898,-17.630,4.919,-0.126,0.560,0.009,-0.282,0.110,-0.260,-0.111,-0.005,1.316,11.840,5.946,4.368,14.332,4.368,14.332
18.414,1.134,-0.617,0.328,0.200,-1.961,0.500,-3.890,-17.708,4.939,-0.287,0.046,-0.082,-0.284,0.107,-0.265,-0.097,-0.001,1.330,11.840,5.946,4.368,14.332,4.368,14.332
18.442,0.855,-1.188,1.186,0.205,-1.974,0.510,-3.886,-17.749,4.950,-0.626,-0.462,-0.412,-0.289,0.100,-0.273,-0.077,-0.013,1.346,12.323,5.815,4.487,14.818,4.487,14.818
18.472,-0.413,-0.926,0.044,0.214,-2.002,0.530,-3.878,-17.827,4.970,-0.462,-0.122,-0.411,-0.293,0.096,-0.278,-0.049,-0.018,1.367,12.323,5.815,4.487,14.818,4.487,14.818
18.501,-0.331,-0.206,-0.871,0.217,-2.017,0.539,-3.874,-17.869,4.981,-0.013,0.635,0.005,-0.302,0.091,-0.288,-0.044,-0.010,1.359,12.323,5.815,4.487,14.818,4.487,14.818
18.530,0.136,1.465,-2.333,0.221,-2.037,0.544,-3.865,-17.948,5.002,0.188,0.704,0.140,-0.305,0.090,-0.292,-0.048,0.003,1.353,12.323,5.815,4.487,14.818,4.487,14.818
18.556,0.281,1.921,-2.640,0.224,-2.042,0.539,-3.860,-17.991,5.014,0.352,0.661,0.213,-0.308,0.091,-0.295,-0.074,0.023,1.326,12.323,5.815,4.487,14.818,4.487,14.818
18.586,0.578,2.124,-2.447,0.227,-2.042,0.531,-3.856,-18.030,5.024,0.370,0.369,0.149,-0.310,0.095,-0.300,-0.083,0.033,1.325,12.323,5.815,4.487,14.818,4.487,14.818
18.616,0.699,1.394,-1.215,0.235,-2.032,0.504,-3.847,-18.111,5.045,0.217,0.155,0.012,-0.310,0.099,-0.301,-0.108,0.033,1.306,12.323,5.815,4.487,14.818,4.487,14.818
18.645,0.635,0.909,-0.274,0.241,-2.023,0.488,-3.842,-18.154,5.055,-0.132,-0.104,-0.266,-0.310,0.104,-0.305,-0.115,0.024,1.309,12.323,5.815,4.487,14.818,4.487,14.818
18.674,0.463,0.155,1.048,0.254,-2.006,0.465,-3.832,-18.232,5.074,-0.243,-0.127,-0.365,-0.310,0.106,-0.307,-0.109,0.016,1.317,12.323,5.815,4.487,14.818,4.487,14.818
18.703,0.099,-0.036,1.411,0.261,-1.997,0.457,-3.826,-18.276,5.084,-0.247,0.075,-0.453,-0.312,0.109,-0.313,-0.103,0.015,1.317,12.323,5.815,4.487,14.818,4.487,14.818
18.734,-0.222,0.085,1.450,0.272,-1.984,0.453,-3.816,-18.354,5.101,-0.154,0.368,-0.386,-0.313,0.110,-0.317,-0.098,0.027,1.316,12.323,5.815,4.487,14.818,4.487,14.818
18.764,-0.045,0.161,1.609,0.276,-1.977,0.456,-3.811,-18.394,5.110,0.144,0.384,-0.137,-0.316,0.116,-0.325,-0.101,0.037,1.309,12.323,5.815,4.487,14.818,4.487,14.818
18.793,-0.067,0.032,0.395,0.281,-1.966,0.468,-3.800,-18.471,5.129,0.159,0.292,-0.180,-0.317,0.119,-0.329,-0.108,0.051,1.290,12.323,5.815,4.487,14.818,4.487,14.818
18.821,1.079,-0.570,1.794,0.285,-1.962,0.476,-3.794,-18.510,5.138,-0.470,-0.345,-0.439,-0.319,0.126,-0.338,-0.106,0.053,1.292,12.323,5.815,4.487,14.818,4.487,14.818
18.850,-1.064,-2.816,2.495,0.292,-1.964,0.505,-3.782,-18.590,5.158,-0.805,-0.470,-0.685,-0.321,0.128,-0.342,-0.073,0.040,1.325,12.323,5.815,4.487,14.818,4.487,14.818
18.878,-1.353,-1.955,1.458,0.292,-1.971,0.523,-3.777,-18.628,5.168,-0.678,-0.040,-0.591,-0.325,0.129,-0.349,-0.052,0.052,1.338,12.323,5.815,4.487,14.818,4.487,14.818
18.907,-0.333,-1.037,0.523,0.290,-1.981,0.541,-3.771,-18.667,5.178,0.077,0.269,0.122,-0.333,0.132,-0.360,-0.047,0.060,1.338,12.323,5.815,4.487,14.818,4.487,14.818
18.937,0.296,-0.902,0.132,0.286,-2.003,0.576,-3.759,-18.749,5.201,0.140,-0.204,-0.057,-0.336,0.134,-0.364,-0.048,0.063,1.333,12.791,5.639,4.603,15.304,4.603,15.304
18.967,0.203,-1.203,0.506,0.285,-2.015,0.591,-3.753,-18.789,5.213,-0.131,-0.594,-0.297,-0.342,0.134,-0.374,-0.039,0.053,1.343,12.791,5.639,4.603,15.304,4.603,15.304
18.997,-0.286,-0.583,-0.851,0.284,-2.041,0.617,-3.742,-18.868,5.237,-0.059,-0.297,-0.257,-0.344,0.133,-0.378,-0.028,0.042,1.353,12.791,5.639,4.603,15.304,4.603,15.304
19.027,-0.304,0.196,-1.768,0.283,-2.054,0.626,-3.736,-18.911,5.250,0.200,0.312,-0.022,-0.349,0.131,-0.387,-0.030,0.043,1.349,12.791,5.639,4.603,15.304,4.603,15.304
19.056,-0.529,1.028,-3.002,0.279,-2.073,0.628,-3.725,-18.994,5.275,0.220,0.402,0.059,-0.350,0.131,-0.391,-0.038,0.065,1.339,12.791,5.639,4.603,15.304,4.603,15.304
19.086,-0.244,1.264,-2.870,0.276,-2.077,0.620,-3.720,-19.033,5.287,0.182,0.227,0.203,-0.351,0.132,-0.397,-0.047,0.078,1.333,12.791,5.639,4.603,15.304,4.603,15.304
19.116,-0.342,0.897,-1.084,0.269,-2.079,0.593,-3.709,-19.116,5.311,0.188,-0.202,0.178,-0.351,0.134,-0.399,-0.062,0.081,1.316,12.791,5.639,4.603,15.304,4.603,15.304
19.145,-0.386,0.630,-1.099,0.265,-2.077,0.578,-3.703,-19.160,5.323,0.502,-0.812,0.018,-0.349,0.133,-0.402,-0.068,0.067,1.316,12.791,5.639,4.603,15.304,4.603,15.304
19.174,-0.674,1.401,-1.738,0.257,-2.068,0.543,-3.693,-19.243,5.346,0.650,-0.478,0.071,-0.346,0.130,-0.403,-0.099,0.046,1.293,12.791,5.639,4.603,15.304,4.603,15.304
19.204,-0.727,0.698,-0.453,0.251,-2.061,0.524,-3.688,-19.284,5.356,0.089,0.056,-0.005,-0.339,0.125,-0.405,-0.117,0.049,1.279,12.791,5.639,4.603,15.304,4.603,15.304
19.233,-0.660,-0.850,1.730,0.237,-2.050,0.495,-3.678,-19.364,5.376,-0.250,0.133,-0.125,-0.337,0.123,-0.405,-0.113,0.058,1.284,12.791,5.639,4.603,15.304,4.603,15.304
19.260,-0.239,-0.416,1.826,0.229,-2.047,0.488,-3.673,-19.407,5.386,0.117,0.038,0.092,-0.332,0.120,-0.407,-0.109,0.061,1.291,12.791,5.639,4.603,15.304,4.603,15.304
19.289,-0.112,0.030,1.323,0.221,-2.045,0.485,-3.669,-19.448,5.396,0.363,-0.123,0.119,-0.330,0.118,-0.407,-0.114,0.060,1.284,12.791,5.639,4.603,15.304,4.603,15.304
19.318,-0.003,0.089,0.625,0.208,-2.040,0.485,-3.660,-19.530,5.416,0.381,-0.214,0.070,-0.327,0.117,-0.407,-0.131,0.052,1.271,12.791,5.639,4.603,15.304,4.603,15.304
19.342,1.400,-0.126,0.462,0.204,-2.038,0.487,-3.656,-19.571,5.425,0.064,-0.046,-0.095,-0.321,0.114,-0.408,-0.136,0.050,1.267,12.791,5.639,4.603,15.304,4.603,15.304
19.369,1.888,-0.863,1.721,0.204,-2.038,0.491,-3.652,-19.611,5.435,-0.282,-0.453,-0.426,-0.318,0.112,-0.408,-0.128,0.036,1.275,12.791,5.639,4.603,15.304,4.603,15.304
19.393,0.778,-4.461,3.329,0.211,-2.050,0.513,-3.644,-19.691,5.455,-1.200,-0.921,-1.278,-0.318,0.108,-0.411,-0.075,0.017,1.334,12.791,5.639,4.603,15.304,4.603,15.304
19.417,-0.919,-3.711,2.121,0.215,-2.067,0.531,-3.640,-19.732,5.465,-0.925,-0.056,-0.951,-0.319,0.105,-0.415,-0.057,0.017,1.349,12.791,5.639,4.603,15.304,4.603,15.304
19.440,1.004,-0.832,1.277,0.219,-2.090,0.554,-3.635,-19.778,5.477,-0.028,0.546,0.643,-0.324,0.100,-0.424,-0.041,0.023,1.331,13.249,5.438,4.712,15.792,4.712,15.792
19.466,2.047,0.913,0.848,0.225,-2.107,0.573,-3.631,-19.818,5.488,0.298,0.263,0.639,-0.326,0.099,-0.426,-0.041,0.033,1.321,13.249,5.438,4.712,15.792,4.712,15.792
19.492,0.920,1.874,-1.508,0.245,-2.129,0.607,-3.622,-19.900,5.511,0.408,0.115,0.304,-0.328,0.099,-0.427,-0.064,0.019,1.297,13.249,5.438,4.712,15.792,4.712,15.792
19.517,0.094,1.533,-2.304,0.256,-2.134,0.617,-3.617,-19.943,5.523,0.288,0.248,-0.011,-0.328,0.100,-0.428,-0.079,0.018,1.280,13.249,5.438,4.712,15.792,4.712,15.792
19.542,-0.441,1.204,-2.223,0.266,-2.135,0.621,-3.611,-19.990,5.536,-0.150,0.629,-0.285,-0.329,0.103,-0.429,-0.080,0.028,1.285,13.249,5.438,4.712,15.792,4.712,15.792
19.572,-0.356,0.866,-2.104,0.279,-2.132,0.616,-3.600,-20.071,5.560,-0.202,0.557,-0.224,-0.329,0.106,-0.431,-0.079,0.060,1.272,13.249,5.438,4.712,15.792,4.712,15.792
19.602,0.013,0.972,-2.034,0.284,-2.127,0.608,-3.595,-20.114,5.572,0.116,0.414,-0.049,-0.331,0.114,-0.435,-0.081,0.069,1.258,13.249,5.438,4.712,15.792,4.712,15.792
19.631,0.220,1.387,-2.262,0.293,-2.113,0.581,-3.583,-20.199,5.596,0.337,0.301,-0.035,-0.331,0.118,-0.436,-0.098,0.080,1.232,13.249,5.438,4.712,15.792,4.712,15.792
19.659,0.515,1.373,-1.940,0.298,-2.103,0.562,-3.577,-20.243,5.608,0.396,0.177,-0.001,-0.331,0.123,-0.438,-0.105,0.083,1.222,13.249,5.438,4.712,15.792,4.712,15.792
19.689,0.566,0.761,-0.660,0.309,-2.080,0.523,-3.565,-20.324,5.629,0.226,0.076,-0.043,-0.328,0.132,-0.440,-0.118,0.078,1.212,13.249,5.438,4.712,15.792,4.712,15.792
19.718,0.506,0.192,0.272,0.315,-2.067,0.505,-3.559,-20.366,5.640,0.101,0.040,-0.082,-0.326,0.136,-0.442,-0.124,0.075,1.212,13.249,5.438,4.712,15.792,4.712,15.792
19.747,0.736,-0.337,1.539,0.322,-2.057,0.491,-3.553,-20.407,5.649,0.012,0.007,-0.070,-0.323,0.142,-0.444,-0.124,0.075,1.210,13.249,5.438,4.712,15.792,4.712,15.792
19.777,0.293,-0.050,1.413,0.337,-2.039,0.473,-3.539,-20.491,5.669,0.116,0.105,-0.029,-0.321,0.145,-0.445,-0.125,0.073,1.212,13.249,5.438,4.712,15.792,4.712,15.792
19.805,0.411,0.245,1.509,0.344,-2.032,0.471,-3.533,-20.530,5.678,0.353,0.299,0.116,-0.317,0.152,-0.448,-0.133,0.072,1.201,13.249,5.438,4.712,15.792,4.712,15.792
19.831,0.771,-0.009,2.752,0.361,-2.019,0.478,-3.519,-20.611,5.697,0.329,0.054,0.051,-0.315,0.155,-0.448,-0.147,0.069,1.186,13.249,5.438,4.712,15.792,4.712,15.792
19.857,0.891,-1.205,3.604,0.371,-2.014,0.491,-3.511,-20.653,5.707,0.177,-0.293,-0.214,-0.312,0.158,-0.449,-0.151,0.064,1.180,13.249,5.438,4.712,15.792,4.712,15.792
19.886,0.892,-2.260,3.874,0.382,-2.013,0.509,-3.503,-20.693,5.717,-0.268,-0.963,-0.941,-0.307,0.160,-0.453,-0.137,0.048,1.198,13.249,5.438,4.712,15.792,4.712,15.792
19.917,-0.772,-1.422,1.185,0.400,-2.024,0.556,-3.488,-20.772,5.738,-0.187,-0.773,-0.927,-0.305,0.157,-0.458,-0.121,0.027,1.219,13.249,5.438,4.712,15.792,4.712,15.792
19.948,-0.077,-0.472,-1.225,0.407,-2.033,0.579,-3.480,-20.815,5.750,0.767,0.290,0.050,-0.302,0.152,-0.468,-0.126,0.025,1.207,13.697,5.217,4.885,16.262,4.885,16.262
19.981,-0.946,-0.864,-3.671,0.416,-2.051,0.607,-3.463,-20.896,5.774,0.473,-0.001,-0.241,-0.294,0.150,-0.477,-0.155,0.056,1.162,13.697,5.217,4.885,16.262,4.885,16.262
20.011,0.036,-1.988,-0.443,0.418,-2.073,0.606,-3.447,-20.977,5.797,-0.601,-0.661,-0.125,-0.289,0.148,-0.482,-0.134,0.060,1.184,13.697,5.217,4.885,16.262,4.885,16.262
20.039,0.650,-1.716,-0.051,0.420,-2.088,0.604,-3.438,-21.018,5.809,-0.599,-0.615,0.009,-0.287,0.146,-0.486,-0.106,0.050,1.226,13.697,5.217,4.885,16.262,4.885,16.262
20.069,1.102,-0.812,-0.647,0.423,-2.107,0.600,-3.429,-21.067,5.823,-0.092,-0.162,0.160,-0.284,0.139,-0.493,-0.099,0.041,1.238,13.697,5.217,4.885,16.262,4.885,16.262
20.098,0.245,0.078,-2.409,0.433,-2.135,0.590,-3.413,-21.145,5.845,0.038,0.005,0.064,-0.284,0.136,-0.495,-0.088,0.033,1.244,13.697,5.217,4.885,16.262,4.885,16.262
20.129,-0.238,0.267,-2.674,0.438,-2.148,0.577,-3.404,-21.188,5.857,-0.159,0.348,-0.021,-0.283,0.130,-0.499,-0.085,0.044,1.239,13.697,5.217,4.885,16.262,4.885,16.262
20.158,-0.509,0.731,-1.920,0.444,-2.168,0.542,-3.386,-21.276,5.880,-0.236,0.428,0.040,-0.283,0.129,-0.501,-0.083,0.065,1.234,13.697,5.217,4.885,16.262,4.885,16.262
20.187,-0.325,0.895,-1.192,0.445,-2.174,0.522,-3.377,-21.320,5.891,-0.246,0.216,0.220,-0.284,0.129,-0.503,-0.078,0.073,1.245,13.697,5.217,4.885,16.262,4.885,16.262
20.216,-0.248,0.960,-0.218,0.446,-2.179,0.483,-3.360,-21.405,5.910,-0.156,0.106,0.276,-0.286,0.130,-0.504,-0.079,0.078,1.238,13.697,5.217,4.885,16.262,4.885,16.262
20.246,-0.046,1.127,0.447,0.445,-2.178,0.466,-3.351,-21.448,5.920,0.105,0.277,0.335,-0.288,0.132,-0.502,-0.090,0.075,1.222,13.697,5.217,4.885,16.262,4.885,16.262
20.277,-0.451,0.656,0.594,0.444,-2.171,0.440,-3.333,-21.538,5.938,0.188,0.607,0.257,-0.289,0.133,-0.501,-0.104,0.092,1.191,13.697,5.217,4.885,16.262,4.885,16.262
20.306,-0.802,0.521,0.716,0.442,-2.166,0.431,-3.324,-21.579,5.947,0.276,0.889,0.314,-0.289,0.141,-0.497,-0.110,0.110,1.176,13.697,5.217,4.885,16.262,4.885,16.262
20.336,0.064,0.767,0.955,0.435,-2.154,0.420,-3.307,-21.665,5.964,0.309,0.502,0.370,-0.288,0.147,-0.494,-0.131,0.136,1.133,13.697,5.217,4.885,16.262,4.885,16.262
20.366,-0.295,1.040,0.691,0.432,-2.146,0.418,-3.298,-21.710,5.972,0.360,-0.226,0.217,-0.285,0.158,-0.488,-0.150,0.134,1.113,13.697,5.217,4.885,16.262,4.885,16.262
20.396,0.793,1.130,2.512,0.426,-2.127,0.420,-3.281,-21.794,5.989,0.176,-0.426,0.187,-0.283,0.161,-0.485,-0.168,0.106,1.112,13.697,5.217,4.885,16.262,4.885,16.262
20.425,3.431,0.508,5.262,0.428,-2.116,0.432,-3.272,-21.838,5.998,-0.142,-0.953,0.258,-0.280,0.164,-0.480,-0.166,0.086,1.127,13.697,5.217,4.885,16.262,4.885,16.262
20.456,1.127,-2.783,2.724,0.448,-2.100,0.477,-3.254,-21.922,6.016,-1.001,-2.110,-0.316,-0.278,0.162,-0.474,-0.122,-0.014,1.222,14.141,4.986,5.099,16.713,5.099,16.713
20.486,-0.656,-3.356,-0.028,0.460,-2.102,0.505,-3.245,-21.967,6.026,-0.430,0.031,-0.866,-0.283,0.146,-0.472,-0.085,-0.019,1.250,14.141,4.986,5.099,16.713,5.099,16.713
20.516,1.008,-0.678,-1.011,0.477,-2.118,0.546,-3.227,-22.047,6.046,-0.154,0.509,-0.367,-0.287,0.139,-0.474,-0.060,-0.011,1.265,14.141,4.986,5.099,16.713,5.099,16.713
20.546,1.753,-0.188,-0.318,0.487,-2.128,0.562,-3.217,-22.089,6.057,-0.275,-0.264,-0.140,-0.294,0.129,-0.477,-0.059,-0.008,1.256,14.141,4.986,5.099,16.713,5.099,16.713
20.575,0.448,-0.557,-0.118,0.514,-2.147,0.590,-3.197,-22.177,6.081,-0.572,-0.325,-0.398,-0.298,0.124,-0.479,-0.034,-0.028,1.296,14.141,4.986,5.099,16.713,5.099,16.713
20.604,-0.455,-0.201,-1.193,0.525,-2.156,0.599,-3.187,-22.218,6.092,-0.434,0.513,-0.415,-0.308,0.115,-0.485,-0.019,-0.022,1.321,14.141,4.986,5.099,16.713,5.099,16.713
20.634,-0.830,1.243,-2.673,0.541,-2.169,0.607,-3.166,-22.304,6.116,0.048,1.027,-0.017,-0.313,0.113,-0.489,-0.021,0.016,1.307,14.141,4.986,5.099,16.713,5.099,16.713
20.663,-0.742,1.788,-2.718,0.545,-2.171,0.602,-3.154,-22.350,6.129,0.275,0.574,0.126,-0.321,0.114,-0.494,-0.024,0.034,1.307,14.141,4.986,5.099,16.713,5.099,16.713
20.692,-0.167,2.228,-1.939,0.550,-2.163,0.580,-3.132,-22.437,6.153,0.338,0.208,0.094,-0.324,0.117,-0.496,-0.054,0.045,1.263,14.141,4.986,5.099,16.713,5.099,16.713
20.719,-0.035,2.017,-1.568,0.552,-2.153,0.565,-3.122,-22.478,6.163,0.351,-0.013,0.021,-0.326,0.119,-0.498,-0.077,0.037,1.247,14.141,4.986,5.099,16.713,5.099,16.713
20.748,0.243,1.895,-0.639,0.554,-2.139,0.548,-3.110,-22.525,6.176,0.166,-0.211,-0.195,-0.327,0.123,-0.502,-0.082,0.035,1.246,14.141,4.986,5.099,16.713,5.099,16.713
20.778,0.330,0.736,1.203,0.558,-2.110,0.522,-3.089,-22.606,6.196,0.065,-0.451,-0.389,-0.327,0.123,-0.504,-0.097,0.013,1.244,14.141,4.986,5.099,16.713,5.099,16.713
20.804,0.243,-0.190,2.074,0.561,-2.095,0.515,-3.077,-22.648,6.206,-0.016,-0.789,-0.751,-0.327,0.121,-0.510,-0.098,-0.003,1.263,14.141,4.986,5.099,16.713,5.099,16.713
20.832,-0.651,-0.944,1.856,0.566,-2.074,0.514,-3.055,-22.731,6.227,0.140,-0.351,-0.656,-0.327,0.118,-0.515,-0.100,-0.016,1.263,14.141,4.986,5.099,16.713,5.099,16.713
20.857,-0.613,-0.756,1.149,0.567,-2.067,0.519,-3.043,-22.774,6.238,0.354,0.243,-0.351,-0.327,0.115,-0.521,-0.107,-0.011,1.255,14.141,4.986,5.099,16.713,5.099,16.713
20.886,-0.683,-0.368,0.650,0.566,-2.062,0.525,-3.032,-22.814,6.248,0.542,0.629,0.083,-0.323,0.112,-0.531,-0.119,0.009,1.238,14.141,4.986,5.099,16.713,5.099,16.713
20.916,0.757,-0.411,0.751,0.562,-2.056,0.538,-3.010,-22.896,6.269,0.454,0.367,0.111,-0.320,0.113,-0.535,-0.134,0.024,1.223,14.571,4.731,5.269,17.183,5.269,17.183
20.947,1.890,-1.117,2.753,0.563,-2.055,0.548,-2.998,-22.937,6.280,-0.268,-0.800,-0.208,-0.314,0.115,-0.542,-0.138,0.021,1.232,14.571,4.731,5.269,17.183,5.269,17.183
20.976,0.747,-3.558,2.531,0.573,-2.065,0.583,-2.976,-23.019,6.302,-0.601,-0.993,-0.555,-0.312,0.113,-0.546,-0.105,-0.015,1.297,14.571,4.731,5.269,17.183,5.269,17.183
21.005,0.227,-2.173,1.223,0.581,-2.081,0.610,-2.962,-23.067,6.316,-0.016,0.242,-0.054,-0.311,0.107,-0.555,-0.083,-0.017,1.325,14.571,4.731,5.269,17.183,5.269,17.183
21.036,-0.279,-0.518,-1.479,0.593,-2.112,0.647,-2.940,-23.147,6.340,0.369,0.484,0.227,-0.311,0.105,-0.558,-0.084,0.004,1.321,14.571,4.731,5.269,17.183,5.269,17.183
21.066,-0.542,-0.494,-2.141,0.597,-2.128,0.659,-2.928,-23.189,6.353,0.353,0.028,-0.005,-0.308,0.103,-0.564,-0.093,0.010,1.312,14.571,4.731,5.269,17.183,5.269,17.183
21.095,-0.358,-0.731,-1.346,0.602,-2.157,0.670,-2.905,-23.273,6.379,0.071,-0.079,-0.040,-0.306,0.102,-0.567,-0.095,0.021,1.308,14.571,4.731,5.269,17.183,5.269,17.183
21.123,-0.370,-0.684,-0.963,0.603,-2.171,0.670,-2.893,-23.316,6.392,-0.313,0.016,0.023,-0.303,0.101,-0.571,-0.086,0.028,1.319,14.571,4.731,5.269,17.183,5.269,17.183
21.152,-0.693,-0.182,-1.285,0.602,-2.200,0.665,-2.868,-23.406,6.420,-0.299,0.114,0.117,-0.302,0.101,-0.573,-0.073,0.040,1.339,14.571,4.731,5.269,17.183,5.269,17.183
