time,acc_x,acc_y,acc_z,vel_x,vel_y,vel_z,pos_x,pos_y,pos_z,rad_vel_x,rad_vel_y,rad_vel_z,rad_gyro_x,rad_gyro_y,rad_gyro_z,rad_mag_x,rad_mag_y,rad_mag_z
0.079,-1.172,0.355,-0.097,0.000,0.000,0.000,0.000,0.000,0.000,0.000,0.000,0.000,-0.000,-0.000,-0.000,-0.000,-0.000,-0.000,0.000,0.000,0.000,0.000,0.000,0.000
0.318,-0.038,0.809,0.138,0.000,0.000,0.000,0.000,0.000,0.000,-0.001,0.000,-0.001,-0.178,-0.063,1.432,-0.178,-0.063,1.432,0.000,0.000,0.000,0.000,0.000,0.000
0.385,-0.161,0.692,0.158,0.000,0.000,0.000,0.000,0.000,0.000,-0.001,0.000,-0.001,-0.178,-0.058,1.397,-0.178,-0.058,1.397,0.000,0.000,0.000,0.000,0.000,0.000
0.440,-0.212,0.405,0.313,0.000,0.000,0.000,0.000,0.000,0.000,-0.001,0.000,-0.001,-0.175,-0.049,1.377,-0.175,-0.049,1.377,0.000,0.000,0.000,0.000,0.000,0.000
0.500,0.187,0.507,0.116,0.000,0.000,0.000,0.000,0.000,0.000,0.075,-0.050,0.039,-0.177,-0.044,1.385,-0.177,-0.044,1.385,0.000,0.000,0.000,0.000,0.000,0.000
0.547,0.040,0.337,0.100,0.000,0.000,0.000,0.000,0.000,0.000,0.066,-0.099,0.020,-0.183,-0.046,1.370,-0.183,-0.046,1.370,0.000,0.000,0.000,0.000,0.000,0.000
0.591,0.035,0.103,0.229,0.000,0.000,0.000,0.000,0.000,0.000,0.031,0.020,0.044,-0.186,-0.048,1.378,-0.186,-0.048,1.378,0.000,0.000,0.000,0.000,0.000,0.000
0.631,0.006,0.082,0.324,0.000,0.000,0.000,0.000,0.000,0.000,0.051,-0.004,-0.012,-0.188,-0.047,1.386,-0.188,-0.047,1.386,0.000,0.000,0.000,0.000,0.000,0.000
0.674,-0.117,0.438,0.211,0.000,0.000,0.000,0.000,0.000,0.000,0.050,0.028,-0.088,-0.192,-0.039,1.432,-0.192,-0.039,1.432,0.000,0.000,0.000,0.000,0.000,0.000
0.708,0.093,-0.435,0.160,0.000,0.000,0.000,0.000,0.000,0.000,0.040,0.022,-0.060,-0.192,0.042,1.391,-0.192,0.042,1.391,0.000,0.000,0.000,0.000,0.000,0.000
0.746,0.134,-1.014,0.171,0.000,0.000,0.000,0.000,0.000,0.000,0.007,0.028,-0.062,-0.193,0.114,1.362,-0.193,0.114,1.362,0.000,0.000,0.000,0.000,0.000,0.000
0.782,0.293,-1.224,0.387,0.000,0.000,0.000,0.000,0.000,0.000,-0.001,0.048,-0.071,-0.191,0.175,1.285,-0.191,0.175,1.285,0.000,0.000,0.000,0.000,0.000,0.000
0.816,0.533,-1.636,0.475,0.000,0.000,0.000,0.000,0.000,0.000,0.011,0.022,-0.045,-0.190,0.226,1.235,-0.190,0.226,1.235,0.000,0.000,0.000,0.000,0.000,0.000
0.846,0.555,-1.596,0.523,0.000,0.000,0.000,0.000,0.000,0.000,-0.026,-0.004,-0.026,-0.191,0.212,1.221,-0.191,0.212,1.221,0.000,0.000,0.000,0.000,0.000,0.000
0.880,0.739,-1.748,0.804,0.000,0.000,0.000,0.000,0.000,0.000,-0.054,0.023,-0.038,-0.188,0.252,1.179,-0.188,0.252,1.179,0.000,0.000,0.000,0.000,0.000,0.000
0.909,0.707,-2.375,0.931,0.000,0.000,0.000,0.000,0.000,0.000,-0.061,0.016,-0.048,-0.182,0.304,1.106,-0.182,0.304,1.106,0.000,0.000,0.000,0.000,0.000,0.000
0.938,0.971,-2.488,1.389,0.000,0.000,0.000,0.000,0.000,0.000,-0.075,-0.042,-0.060,-0.176,0.334,1.105,-0.176,0.334,1.105,0.000,0.000,0.000,0.000,0.000,0.000
0.967,0.958,-2.161,1.463,0.000,0.000,0.000,0.000,0.000,0.000,-0.084,-0.018,-0.057,-0.175,0.314,1.125,-0.175,0.314,1.125,0.000,0.000,0.000,0.000,0.000,0.000
0.995,1.176,-2.190,1.542,0.000,0.000,0.000,0.000,0.000,0.000,-0.061,-0.002,-0.054,-0.169,0.339,1.079,-0.169,0.339,1.079,0.000,0.000,0.000,0.000,0.000,0.000
1.021,1.396,-2.525,1.766,0.000,0.000,0.000,0.000,0.000,0.000,-0.038,-0.044,-0.040,-0.163,0.380,1.034,-0.163,0.380,1.034,0.000,0.000,0.000,0.000,0.000,0.000
1.048,1.411,-2.309,1.841,0.000,0.000,0.000,0.000,0.000,0.000,-0.067,-0.131,-0.022,-0.163,0.380,1.034,-0.165,0.356,1.039,0.000,0.000,0.000,0.000,0.000,0.000
1.074,1.454,-2.345,2.076,0.000,0.000,0.000,0.000,0.000,0.000,-0.083,-0.126,-0.024,-0.163,0.380,1.034,-0.160,0.369,1.014,0.000,0.000,0.000,0.000,0.000,0.000
1.100,1.640,-2.486,2.290,0.000,0.000,0.000,0.000,0.000,0.000,-0.056,-0.117,-0.018,-0.163,0.380,1.034,-0.153,0.405,0.987,0.000,0.000,0.000,0.000,0.000,0.000
1.126,1.601,-2.397,1.972,0.000,0.000,0.000,0.000,0.000,0.000,-0.023,-0.162,0.007,-0.163,0.380,1.034,-0.157,0.379,0.994,0.000,0.000,0.000,0.000,0.000,0.000
1.152,1.852,-2.673,2.234,0.000,0.000,0.000,0.000,0.000,0.000,-0.050,-0.161,0.028,-0.163,0.380,1.034,-0.151,0.414,0.991,0.000,0.000,0.000,0.000,0.000,0.000
1.177,1.802,-2.764,2.407,0.000,0.000,0.000,0.000,0.000,0.000,-0.071,-0.130,0.029,-0.163,0.380,1.034,-0.149,0.421,1.014,0.000,0.000,0.000,0.000,0.000,0.000
1.203,1.721,-2.671,2.074,0.000,0.000,0.000,0.000,0.000,0.000,-0.068,-0.090,0.027,-0.163,0.380,1.034,-0.153,0.394,1.050,0.000,0.000,0.000,0.000,0.000,0.000
1.237,1.803,-2.896,1.926,0.000,0.000,0.000,0.000,0.000,0.000,-0.045,-0.057,0.032,-0.163,0.380,1.034,-0.152,0.402,1.037,0.000,0.000,0.000,0.000,0.000,0.000
1.270,1.868,-3.177,2.317,0.000,0.000,0.000,0.000,0.000,0.000,-0.175,-0.006,0.028,-0.163,0.380,1.034,-0.146,0.438,0.991,0.000,0.000,0.000,0.000,0.000,0.000
1.296,1.738,-3.302,3.029,0.000,0.000,0.000,0.000,0.000,0.000,-0.224,0.064,0.018,-0.163,0.380,1.034,-0.138,0.445,0.967,0.000,0.000,0.000,0.000,0.000,0.000
1.328,1.609,-3.003,2.675,0.000,0.000,0.000,0.000,0.000,0.000,-0.149,0.231,-0.034,-0.163,0.380,1.034,-0.138,0.420,1.054,0.000,0.000,0.000,0.000,0.000,0.000
1.361,1.720,-2.934,2.503,0.000,0.000,0.000,0.000,0.000,0.000,-0.119,0.242,-0.023,-0.163,0.380,1.034,-0.133,0.435,1.001,0.000,0.000,0.000,0.000,0.000,0.000
1.394,1.809,-2.919,2.360,0.000,0.000,0.000,0.000,0.000,0.000,-0.071,0.088,-0.015,-0.163,0.380,1.034,-0.130,0.446,0.976,0.000,0.000,0.000,0.000,0.000,0.000
1.424,1.894,-2.980,2.629,0.000,0.000,0.000,0.000,0.000,0.000,-0.065,0.017,-0.022,-0.163,0.380,1.034,-0.124,0.480,0.857,0.000,0.000,0.000,0.000,0.000,0.000
1.455,1.896,-3.084,2.913,0.000,0.000,0.000,0.000,0.000,0.000,-0.061,-0.031,-0.010,-0.163,0.380,1.034,-0.123,0.483,0.901,0.000,0.000,0.000,0.000,0.000,0.000
1.487,1.779,-2.905,2.592,0.000,0.000,0.000,0.000,0.000,0.000,-0.013,-0.078,-0.031,-0.163,0.380,1.034,-0.126,0.454,0.936,0.000,0.000,0.000,0.000,0.000,0.000
1.517,1.913,-3.095,2.666,0.000,0.000,0.000,0.000,0.000,0.000,-0.006,-0.099,-0.005,-0.163,0.380,1.034,-0.127,0.453,0.970,0.000,0.000,0.000,0.000,0.000,0.000
1.547,2.029,-3.276,2.828,0.000,0.000,0.000,0.000,0.000,0.000,-0.022,-0.066,-0.007,-0.163,0.380,1.034,-0.124,0.485,0.891,0.000,0.000,0.000,0.000,0.000,0.000
1.580,1.975,-3.183,2.889,0.000,0.000,0.000,0.000,0.000,0.000,-0.031,-0.048,-0.018,-0.163,0.380,1.034,-0.125,0.487,0.926,0.000,0.000,0.000,0.000,0.000,0.000
1.614,2.040,-3.168,2.742,0.000,0.000,0.000,0.000,0.000,0.000,-0.035,-0.027,-0.021,-0.163,0.380,1.034,-0.126,0.489,0.919,0.000,0.000,0.000,0.000,0.000,0.000
1.646,2.020,-3.117,2.527,0.000,0.000,0.000,0.000,0.000,0.000,-0.001,-0.048,-0.006,-0.163,0.380,1.034,-0.131,0.459,0.958,0.000,0.000,0.000,0.000,0.000,0.000
1.680,1.961,-3.147,2.740,0.000,0.000,0.000,0.000,0.000,0.000,-0.017,-0.035,-0.006,-0.163,0.380,1.034,-0.133,0.459,0.924,0.000,0.000,0.000,0.000,0.000,0.000
1.711,2.056,-3.260,2.996,0.000,0.000,0.000,0.000,0.000,0.000,0.006,-0.032,-0.053,-0.163,0.380,1.034,-0.130,0.488,0.856,0.000,0.000,0.000,0.000,0.000,0.000
1.743,2.152,-3.354,2.834,0.000,0.000,0.000,0.000,0.000,0.000,0.035,-0.028,-0.037,-0.163,0.380,1.034,-0.133,0.489,0.865,0.000,0.000,0.000,0.000,0.000,0.000
1.773,2.272,-3.218,2.390,0.000,0.000,0.000,0.000,0.000,0.000,0.053,-0.004,-0.044,-0.163,0.380,1.034,-0.140,0.457,0.937,0.000,0.000,0.000,0.000,0.000,0.000
1.803,2.212,-3.354,2.351,0.000,0.000,0.000,0.000,0.000,0.000,-0.032,-0.106,-0.130,-0.163,0.380,1.034,-0.144,0.456,0.905,0.000,0.000,0.000,0.000,0.000,0.000
1.832,2.031,-3.533,2.918,0.000,0.000,0.000,0.000,0.000,0.000,-0.083,-0.111,-0.170,-0.163,0.380,1.034,-0.141,0.486,0.799,0.000,0.000,0.000,0.000,0.000,0.000
1.864,1.859,-3.275,2.726,0.000,0.000,0.000,0.000,0.000,0.000,-0.004,0.002,-0.137,-0.163,0.380,1.034,-0.136,0.482,0.793,0.000,0.000,0.000,0.000,0.000,0.000
1.896,2.134,-3.226,2.295,0.000,0.000,0.000,0.000,0.000,0.000,0.038,0.018,-0.100,-0.163,0.380,1.034,-0.137,0.484,0.782,0.000,0.000,0.000,0.000,0.000,0.000
1.923,1.974,-2.981,2.122,0.000,0.000,0.000,0.000,0.000,0.000,0.017,-0.039,-0.077,-0.163,0.380,1.034,-0.143,0.455,0.845,0.000,0.000,0.000,0.000,0.000,0.000
1.950,2.142,-3.088,2.409,0.000,0.000,0.000,0.000,0.000,0.000,0.006,-0.035,-0.043,-0.163,0.380,1.034,-0.140,0.484,0.773,0.000,0.000,0.000,0.000,0.000,0.000
1.979,2.494,-3.224,2.607,0.000,0.000,0.000,0.000,0.000,0.000,-0.012,-0.031,-0.009,-0.163,0.380,1.034,-0.145,0.484,0.753,0.000,0.000,0.000,0.000,0.000,0.000
2.006,2.299,-3.041,2.678,0.000,0.000,0.000,0.000,0.000,0.000,-0.151,-0.072,-0.049,-0.163,0.380,1.034,-0.150,0.452,0.795,0.000,0.000,0.000,0.000,0.000,0.000
2.033,1.831,-2.842,3.013,0.008,-0.012,0.012,0.000,-0.000,0.000,-0.211,-0.068,-0.065,-0.163,0.380,1.034,-0.146,0.451,0.818,0.000,0.000,0.000,0.000,0.000,0.000
2.069,2.243,-3.311,3.482,0.018,-0.026,0.027,0.000,-0.001,0.001,-0.208,0.048,0.012,-0.164,0.380,1.034,-0.140,0.482,0.753,0.000,0.000,0.000,0.000,0.000,0.000
2.099,2.456,-3.240,3.290,0.046,-0.068,0.070,0.002,-0.002,0.002,-0.170,0.068,-0.051,-0.166,0.380,1.034,-0.139,0.483,0.756,0.000,0.000,0.000,0.000,0.000,0.000
2.126,2.457,-3.113,2.919,0.066,-0.095,0.098,0.003,-0.004,0.004,-0.079,0.066,-0.094,-0.169,0.381,1.033,-0.144,0.453,0.817,0.000,0.000,0.000,0.000,0.000,0.000
2.151,2.649,-3.223,3.007,0.090,-0.128,0.131,0.004,-0.006,0.007,-0.070,0.093,-0.090,-0.170,0.381,1.033,-0.141,0.485,0.798,0.000,0.000,0.000,0.000,0.000,0.000
2.176,2.825,-3.019,2.956,0.142,-0.197,0.198,0.009,-0.013,0.013,-0.048,0.140,-0.088,-0.172,0.382,1.032,-0.144,0.489,0.739,0.000,0.000,0.000,0.000,0.000,0.000
2.202,2.539,-3.003,2.562,0.173,-0.236,0.235,0.012,-0.017,0.017,-0.065,0.115,-0.045,-0.173,0.382,1.031,-0.152,0.460,0.800,0.000,0.000,0.000,0.000,0.000,0.000
2.228,2.620,-3.179,2.634,0.206,-0.278,0.274,0.016,-0.022,0.022,0.075,0.016,-0.073,-0.176,0.384,1.030,-0.150,0.492,0.704,0.000,0.000,0.000,0.000,0.000,0.000
2.255,2.758,-3.320,2.356,0.277,-0.367,0.354,0.026,-0.035,0.035,0.140,-0.075,-0.065,-0.176,0.385,1.029,-0.161,0.491,0.663,0.000,0.000,0.000,0.000,0.000,0.000
2.287,2.625,-3.245,2.313,0.320,-0.419,0.399,0.032,-0.044,0.043,0.077,-0.112,-0.046,-0.177,0.386,1.027,-0.172,0.457,0.765,0.000,0.000,0.000,0.000,0.000,0.000
2.319,2.415,-3.146,2.606,0.396,-0.514,0.480,0.046,-0.061,0.060,0.022,-0.081,-0.059,-0.177,0.386,1.026,-0.181,0.453,0.777,0.000,0.000,0.000,0.000,0.000,0.000
2.352,2.540,-3.277,2.738,0.438,-0.567,0.524,0.054,-0.072,0.070,0.056,0.046,-0.068,-0.177,0.386,1.024,-0.180,0.485,0.694,0.000,0.000,0.000,0.000,0.000,0.000
2.385,2.588,-3.034,2.371,0.525,-0.677,0.615,0.074,-0.098,0.093,0.018,0.090,-0.095,-0.177,0.387,1.022,-0.189,0.487,0.643,0.000,0.000,0.000,0.000,0.000,0.000
2.418,2.484,-2.621,2.250,0.611,-0.782,0.703,0.096,-0.126,0.119,-0.032,0.133,-0.103,-0.177,0.387,1.021,-0.196,0.495,0.632,0.000,0.000,0.000,0.000,0.000,0.000
2.451,1.908,-2.674,2.910,0.660,-0.842,0.753,0.110,-0.144,0.135,-0.024,0.068,0.009,-0.177,0.388,1.019,-0.200,0.467,0.710,0.000,0.000,0.000,0.000,0.000,0.000
2.484,2.196,-2.617,2.672,0.741,-0.942,0.840,0.136,-0.177,0.164,0.159,0.026,0.142,-0.177,0.390,1.017,-0.210,0.469,0.694,0.000,0.000,0.000,0.000,0.000,0.000
2.517,2.349,-2.904,2.563,0.832,-1.054,0.939,0.168,-0.218,0.201,0.205,0.012,0.205,-0.176,0.390,1.017,-0.229,0.469,0.669,0.000,0.000,0.000,0.000,0.000,0.000
2.552,2.277,-3.224,3.100,0.877,-1.109,0.988,0.185,-0.240,0.220,0.132,-0.095,0.239,-0.174,0.391,1.017,-0.235,0.498,0.656,0.000,0.000,0.000,0.000,0.000,0.000
2.585,2.301,-3.242,3.271,0.964,-1.219,1.087,0.221,-0.285,0.261,0.171,-0.159,0.238,-0.172,0.391,1.020,-0.252,0.489,0.656,0.000,0.000,0.000,0.000,0.000,0.000
2.618,2.128,-4.410,2.886,1.057,-1.340,1.194,0.262,-0.337,0.307,0.098,-0.071,0.187,-0.170,0.391,1.021,-0.271,0.479,0.675,0.000,0.000,0.000,0.000,0.000,0.000
2.649,0.709,-3.784,3.994,1.102,-1.405,1.251,0.285,-0.366,0.333,-0.611,-0.287,-0.189,-0.168,0.389,1.025,-0.264,0.441,0.712,0.000,0.000,0.000,0.000,0.000,0.000
2.680,-0.673,-3.658,4.113,1.175,-1.530,1.366,0.330,-0.423,0.384,-0.619,-0.332,-0.254,-0.169,0.387,1.026,-0.231,0.429,0.767,0.000,0.000,0.000,0.000,0.000,0.000
2.707,0.078,-4.013,2.872,1.207,-1.599,1.431,0.355,-0.456,0.413,0.057,-0.108,-0.027,-0.173,0.384,1.026,-0.229,0.455,0.705,0.000,0.000,0.000,0.000,0.000,0.000
2.735,1.030,-3.867,1.420,1.259,-1.731,1.546,0.403,-0.521,0.471,0.203,0.034,0.075,-0.174,0.382,1.026,-0.233,0.456,0.697,0.000,0.000,0.000,0.000,0.000,0.000
2.764,1.180,-3.496,0.965,1.286,-1.799,1.599,0.428,-0.557,0.503,0.126,0.189,0.195,-0.176,0.379,1.027,-0.236,0.432,0.751,0.000,0.000,0.000,0.000,0.000,0.000
2.790,1.338,-3.654,1.108,1.312,-1.868,1.650,0.454,-0.593,0.535,0.071,0.067,0.160,-0.176,0.378,1.029,-0.245,0.465,0.707,0.000,0.000,0.000,0.000,0.000,0.000
2.816,1.008,-4.208,2.709,1.362,-2.003,1.743,0.506,-0.669,0.602,-0.082,-0.075,0.130,-0.176,0.378,1.030,-0.252,0.462,0.705,0.000,0.000,0.000,0.000,0.000,0.000
2.841,0.604,-3.892,2.836,1.388,-2.078,1.794,0.535,-0.712,0.639,-0.266,-0.097,0.099,-0.177,0.377,1.031,-0.243,0.426,0.775,0.000,0.000,0.000,0.000,0.000,0.000
2.867,0.422,-3.714,2.723,1.411,-2.150,1.843,0.563,-0.754,0.675,-0.290,0.210,-0.088,-0.179,0.376,1.033,-0.243,0.455,0.764,0.000,0.000,0.000,0.000,0.000,0.000
2.892,1.077,-3.431,1.214,1.453,-2.289,1.936,0.619,-0.840,0.749,-0.165,0.353,-0.077,-0.181,0.376,1.034,-0.234,0.431,0.821,0.000,0.000,0.000,0.000,0.000,0.000
2.918,1.184,-3.136,0.742,1.476,-2.363,1.983,0.650,-0.889,0.790,-0.043,0.413,-0.043,-0.183,0.377,1.035,-0.237,0.451,0.781,0.000,0.000,0.000,0.000,0.000,0.000
2.944,0.679,-3.235,1.942,1.497,-2.433,2.025,0.679,-0.937,0.830,-0.206,0.290,0.032,-0.187,0.381,1.035,-0.242,0.489,0.736,0.000,0.000,0.000,0.000,0.000,0.000
2.969,0.396,-3.027,2.336,1.517,-2.502,2.068,0.710,-0.987,0.871,0.050,0.000,0.044,-0.189,0.384,1.036,-0.235,0.466,0.752,0.000,0.000,0.000,0.000,0.000,0.000
2.995,1.072,-2.932,1.169,1.555,-2.635,2.151,0.769,-1.087,0.953,0.271,-0.161,0.037,-0.190,0.386,1.036,-0.249,0.465,0.709,0.000,0.000,0.000,0.000,0.000,0.000
3.020,1.101,-3.111,1.684,1.575,-2.705,2.194,0.802,-1.143,0.999,0.285,-0.134,0.081,-0.191,0.387,1.037,-0.261,0.489,0.657,0.000,0.000,0.000,0.000,0.000,0.000
3.046,1.037,-3.042,1.958,1.595,-2.772,2.234,0.834,-1.198,1.043,0.177,-0.077,0.181,-0.191,0.389,1.039,-0.266,0.458,0.700,0.000,0.000,0.000,0.000,0.000,0.000
3.071,0.940,-3.257,2.474,1.614,-2.838,2.275,0.866,-1.254,1.088,0.217,-0.122,0.165,-0.190,0.390,1.040,-0.278,0.482,0.671,0.000,0.000,0.000,0.000,0.000,0.000
3.096,0.870,-3.278,2.517,1.653,-2.970,2.359,0.931,-1.370,1.181,0.286,-0.153,0.156,-0.189,0.390,1.041,-0.296,0.472,0.696,0.000,0.000,0.000,0.000,0.000,0.000
3.121,0.950,-3.324,2.348,1.673,-3.039,2.404,0.966,-1.433,1.231,0.345,-0.139,0.170,-0.188,0.390,1.043,-0.303,0.437,0.743,0.000,0.000,0.000,0.000,0.000,0.000
3.146,0.947,-3.666,2.626,1.691,-3.101,2.445,0.998,-1.491,1.277,0.307,-0.114,0.114,-0.183,0.389,1.047,-0.318,0.460,0.678,0.000,0.000,0.000,0.000,0.000,0.000
3.172,0.237,-3.338,3.873,1.727,-3.231,2.535,1.065,-1.615,1.374,0.250,-0.232,0.031,-0.180,0.388,1.049,-0.322,0.424,0.721,0.000,0.000,0.000,0.000,0.000,0.000
3.200,0.307,-3.074,3.405,1.743,-3.298,2.585,1.100,-1.680,1.425,0.276,-0.340,-0.042,-0.177,0.387,1.050,-0.334,0.406,0.729,0.000,0.000,0.000,0.000,0.000,0.000
3.225,0.918,-3.867,2.051,1.762,-3.375,2.643,1.140,-1.757,1.485,0.349,-0.156,-0.057,-0.170,0.383,1.053,-0.349,0.427,0.698,0.000,0.000,0.000,0.000,0.000,0.000
3.259,-0.900,-4.745,3.810,1.791,-3.503,2.734,1.206,-1.884,1.585,-0.183,-0.280,-0.220,-0.166,0.381,1.054,-0.353,0.405,0.731,0.000,0.000,0.000,0.000,0.000,0.000
3.291,-2.558,-3.591,4.826,1.802,-3.587,2.795,1.247,-1.965,1.648,-0.936,0.159,-0.411,-0.163,0.376,1.053,-0.315,0.371,0.790,0.000,0.000,0.000,0.000,0.000,0.000
3.325,-0.451,-3.326,1.726,1.809,-3.724,2.900,1.316,-2.104,1.757,0.037,0.318,-0.015,-0.165,0.374,1.051,-0.285,0.383,0.786,0.000,0.000,0.000,0.000,0.000,0.000
3.359,-0.111,-4.697,3.485,1.811,-3.869,3.008,1.388,-2.256,1.875,0.060,-0.057,0.037,-0.167,0.374,1.050,-0.285,0.372,0.803,0.000,0.000,0.000,0.000,0.000,0.000
3.389,-0.468,-4.706,4.405,1.812,-3.945,3.064,1.424,-2.334,1.936,-0.274,-0.457,-0.170,-0.169,0.372,1.047,-0.292,0.388,0.807,0.000,0.000,0.000,0.000,0.000,0.000
3.418,0.102,-4.270,1.857,1.810,-4.097,3.178,1.495,-2.491,2.057,-0.171,-0.342,-0.250,-0.171,0.370,1.046,-0.280,0.362,0.862,0.000,0.000,0.000,0.000,0.000,0.000
3.446,0.624,-3.696,0.581,1.810,-4.179,3.236,1.533,-2.578,2.125,0.126,0.271,-0.142,-0.174,0.366,1.042,-0.274,0.336,0.893,0.000,0.000,0.000,0.000,0.000,0.000
3.475,1.143,-3.412,0.297,1.815,-4.331,3.330,1.604,-2.744,2.253,0.056,0.331,-0.068,-0.175,0.366,1.040,-0.286,0.344,0.870,0.000,0.000,0.000,0.000,0.000,0.000
3.503,1.518,-3.708,0.160,1.820,-4.408,3.372,1.640,-2.831,2.320,0.149,0.172,0.033,-0.176,0.366,1.037,-0.298,0.371,0.831,0.000,0.000,0.000,0.000,0.000,0.000
3.530,1.617,-3.639,-0.181,1.829,-4.488,3.412,1.678,-2.925,2.391,0.250,0.024,0.015,-0.176,0.366,1.035,-0.302,0.344,0.880,0.000,0.000,0.000,0.000,0.000,0.000
3.560,1.215,-3.469,0.200,1.850,-4.636,3.476,1.750,-3.103,2.525,0.264,-0.099,-0.059,-0.176,0.367,1.034,-0.322,0.335,0.873,0.000,0.000,0.000,0.000,0.000,0.000
3.592,0.879,-3.118,1.363,1.877,-4.786,3.532,1.825,-3.291,2.665,0.254,-0.062,-0.022,-0.174,0.367,1.031,-0.337,0.354,0.840,0.000,0.000,0.000,0.000,0.000,0.000
3.618,0.651,-3.342,2.031,1.892,-4.863,3.562,1.864,-3.392,2.740,0.246,-0.042,0.005,-0.172,0.367,1.030,-0.354,0.342,0.821,0.000,0.000,0.000,0.000,0.000,0.000
3.644,0.434,-2.909,1.985,1.907,-4.942,3.595,1.906,-3.500,2.819,0.323,0.051,-0.002,-0.168,0.367,1.028,-0.353,0.314,0.826,0.000,0.000,0.000,0.000,0.000,0.000
3.675,0.170,-2.493,2.029,1.930,-5.071,3.653,1.977,-3.686,2.953,0.369,0.138,0.027,-0.165,0.367,1.027,-0.370,0.311,0.823,0.000,0.000,0.000,0.000,0.000,0.000
3.703,-0.210,-2.496,2.805,1.942,-5.142,3.688,2.018,-3.793,3.030,0.341,0.186,0.086,-0.161,0.367,1.027,-0.387,0.332,0.833,0.000,0.000,0.000,0.000,0.000,0.000
3.730,-0.426,-2.111,3.284,1.951,-5.207,3.724,2.057,-3.896,3.104,0.357,0.283,0.271,-0.154,0.369,1.027,-0.384,0.311,0.869,0.000,0.000,0.000,0.000,0.000,0.000
3.760,0.192,-2.113,2.744,1.965,-5.328,3.802,2.133,-4.102,3.251,0.491,0.368,0.347,-0.150,0.371,1.027,-0.408,0.311,0.879,0.000,0.000,0.000,0.000,0.000,0.000
3.791,0.350,-3.428,1.682,1.972,-5.392,3.846,2.174,-4.214,3.331,0.494,0.470,0.198,-0.138,0.377,1.031,-0.432,0.335,0.854,0.000,0.000,0.000,0.000,0.000,0.000
3.817,-2.495,-3.725,4.198,1.981,-5.517,3.931,2.253,-4.432,3.486,0.027,-0.023,-0.149,-0.134,0.379,1.032,-0.437,0.322,0.871,0.000,0.000,0.000,0.000,0.000,0.000
3.843,-3.295,-3.043,4.144,1.977,-5.581,3.979,2.293,-4.543,3.566,-0.259,-0.353,-0.436,-0.129,0.382,1.033,-0.404,0.293,0.935,0.000,0.000,0.000,0.000,0.000,0.000
3.870,-2.714,-3.171,2.593,1.967,-5.645,4.030,2.332,-4.656,3.646,0.020,0.175,-0.238,-0.122,0.385,1.032,-0.410,0.307,0.925,0.000,0.000,0.000,0.000,0.000,0.000
3.897,-2.049,-2.616,0.933,1.939,-5.769,4.123,2.409,-4.878,3.805,-0.142,0.381,-0.142,-0.119,0.387,1.031,-0.395,0.315,0.925,0.000,0.000,0.000,0.000,0.000,0.000
3.926,-2.343,-2.052,1.290,1.920,-5.834,4.169,2.449,-5.000,3.892,-0.649,0.409,-0.056,-0.116,0.393,1.029,-0.366,0.310,0.945,0.000,0.000,0.000,0.000,0.000,0.000
3.954,-1.781,-2.413,1.351,1.876,-5.949,4.250,2.523,-5.230,4.056,-0.638,0.233,0.035,-0.117,0.397,1.028,-0.334,0.316,0.965,0.000,0.000,0.000,0.000,0.000,0.000
3.982,-1.293,-2.810,1.176,1.851,-6.010,4.292,2.562,-5.356,4.146,-0.476,-0.011,0.082,-0.118,0.400,1.027,-0.337,0.326,0.946,0.000,0.000,0.000,0.000,0.000,0.000
4.010,-0.648,-2.933,0.551,1.826,-6.071,4.331,2.601,-5.482,4.236,-0.222,-0.238,0.167,-0.123,0.405,1.026,-0.318,0.300,0.958,0.000,0.000,0.000,0.000,0.000,0.000
4.038,-0.372,-2.732,-0.203,1.784,-6.184,4.395,2.671,-5.721,4.406,-0.194,0.004,0.211,-0.126,0.407,1.026,-0.311,0.286,0.971,0.000,0.000,0.000,0.000,0.000,0.000
4.066,-0.216,-2.795,-0.535,1.764,-6.244,4.423,2.709,-5.852,4.499,-0.021,0.171,0.242,-0.131,0.410,1.028,-0.319,0.298,0.955,0.000,0.000,0.000,0.000,0.000,0.000
4.097,0.174,-2.558,-0.992,1.732,-6.352,4.463,2.775,-6.091,4.668,0.162,0.023,0.258,-0.134,0.412,1.029,-0.327,0.294,0.964,0.000,0.000,0.000,0.000,0.000,0.000
4.124,0.159,-2.304,-0.738,1.718,-6.411,4.479,2.811,-6.225,4.762,0.266,-0.182,0.263,-0.137,0.415,1.033,-0.327,0.278,1.006,0.000,0.000,0.000,0.000,0.000,0.000
4.154,0.139,-2.179,0.159,1.696,-6.520,4.502,2.879,-6.484,4.941,0.255,-0.198,0.274,-0.137,0.416,1.035,-0.344,0.260,1.002,0.000,0.000,0.000,0.000,0.000,0.000
4.184,0.029,-2.247,0.820,1.686,-6.573,4.513,2.913,-6.615,5.031,0.143,-0.176,0.183,-0.136,0.416,1.041,-0.358,0.263,0.987,0.000,0.000,0.000,0.000,0.000,0.000
4.218,-0.900,-1.786,2.225,1.669,-6.673,4.539,2.979,-6.873,5.208,0.116,-0.248,0.108,-0.136,0.415,1.044,-0.363,0.241,1.002,0.000,0.000,0.000,0.000,0.000,0.000
4.250,-0.838,-1.484,2.004,1.659,-6.725,4.557,3.014,-7.014,5.303,0.209,-0.076,0.108,-0.134,0.414,1.049,-0.355,0.221,1.037,0.000,0.000,0.000,0.000,0.000,0.000
4.285,-0.361,-1.624,1.844,1.638,-6.818,4.596,3.080,-7.285,5.486,0.150,0.220,0.137,-0.131,0.412,1.055,-0.364,0.210,1.024,0.248,0.434,0.259,0.428,0.259,0.428
4.320,-0.539,-1.065,1.978,1.618,-6.906,4.644,3.145,-7.559,5.671,0.158,0.130,0.073,-0.129,0.412,1.058,-0.370,0.207,1.047,0.248,0.434,0.259,0.428,0.259,0.428
4.352,-0.567,-0.647,0.972,1.608,-6.946,4.669,3.177,-7.698,5.764,0.381,-0.241,0.222,-0.125,0.412,1.062,-0.382,0.211,1.048,0.248,0.434,0.259,0.428,0.259,0.428
4.384,0.598,-2.034,0.286,1.589,-7.023,4.719,3.244,-7.991,5.962,0.077,-0.408,0.465,-0.119,0.409,1.069,-0.405,0.192,1.059,0.248,0.434,0.259,0.428,0.259,0.428
4.418,-1.698,-2.876,3.322,1.577,-7.098,4.763,3.304,-8.259,6.142,-0.415,-0.518,0.147,-0.116,0.407,1.072,-0.398,0.141,1.082,0.248,0.434,0.259,0.428,0.259,0.428
4.448,-3.422,-1.199,4.189,1.566,-7.139,4.793,3.336,-8.402,6.237,-0.798,-0.507,-0.385,-0.116,0.399,1.078,-0.355,0.117,1.087,0.248,0.434,0.259,0.428,0.259,0.428
4.478,-1.819,-1.853,1.464,1.532,-7.215,4.860,3.396,-8.682,6.425,-0.255,-0.002,-0.090,-0.117,0.395,1.080,-0.322,0.101,1.094,0.248,0.434,0.259,0.428,0.259,0.428
4.505,-1.661,-2.252,0.896,1.510,-7.255,4.896,3.428,-8.833,6.528,-0.002,-0.095,0.018,-0.121,0.388,1.082,-0.329,0.106,1.038,0.248,0.434,0.259,0.428,0.259,0.428
4.533,-1.538,-2.101,1.862,1.487,-7.294,4.929,3.458,-8.979,6.626,-0.139,-0.263,0.016,-0.122,0.384,1.084,-0.311,0.089,1.052,0.248,0.434,0.259,0.428,0.259,0.428
4.559,-0.170,-2.699,0.126,1.445,-7.373,4.993,3.515,-9.265,6.820,-0.067,-0.148,0.046,-0.124,0.381,1.085,-0.301,0.064,1.083,0.248,0.434,0.259,0.428,0.259,0.428
4.591,-0.280,-2.362,-0.478,1.423,-7.421,5.025,3.548,-9.435,6.935,-0.050,0.232,-0.089,-0.127,0.375,1.087,-0.305,0.068,1.063,0.248,0.434,0.259,0.428,0.259,0.428
4.624,-0.816,-1.477,-0.134,1.389,-7.499,5.069,3.600,-9.711,7.122,-0.083,0.040,-0.224,-0.130,0.372,1.087,-0.295,0.071,1.071,0.248,0.434,0.259,0.428,0.259,0.428
4.652,-0.389,-1.513,-0.530,1.371,-7.541,5.088,3.629,-9.869,7.228,0.100,-0.092,-0.164,-0.131,0.371,1.087,-0.285,0.065,1.081,0.248,0.434,0.259,0.428,0.259,0.428
4.683,0.499,-1.622,-1.425,1.341,-7.619,5.115,3.683,-10.172,7.432,0.326,0.056,-0.029,-0.132,0.368,1.086,-0.296,0.057,1.093,0.248,0.434,0.259,0.428,0.259,0.428
4.712,0.626,-1.581,-1.269,1.330,-7.657,5.122,3.710,-10.325,7.535,0.302,0.134,-0.015,-0.132,0.367,1.085,-0.306,0.060,1.091,0.248,0.434,0.259,0.428,0.259,0.428
4.739,1.075,-1.534,-1.374,1.315,-7.731,5.128,3.763,-10.633,7.740,0.309,0.112,-0.012,-0.130,0.367,1.085,-0.325,0.058,1.084,0.248,0.434,0.259,0.428,0.259,0.428
4.769,0.896,-1.419,-1.319,1.311,-7.767,5.126,3.789,-10.788,7.842,0.332,-0.130,-0.018,-0.127,0.366,1.084,-0.336,0.049,1.085,0.248,0.434,0.259,0.428,0.259,0.428
4.796,-0.438,-1.036,1.779,1.307,-7.837,5.121,3.843,-11.108,8.052,-0.026,-0.420,0.027,-0.124,0.364,1.083,-0.346,0.048,1.079,0.482,0.876,0.496,0.868,0.496,0.868
4.825,-0.613,-1.154,2.049,1.305,-7.868,5.124,3.868,-11.257,8.150,0.264,-0.208,0.169,-0.120,0.361,1.083,-0.342,0.020,1.091,0.482,0.876,0.496,0.868,0.496,0.868
4.852,-0.152,-0.833,1.059,1.299,-7.928,5.136,3.919,-11.565,8.350,0.353,0.167,0.259,-0.118,0.359,1.083,-0.342,0.005,1.093,0.482,0.876,0.496,0.868,0.496,0.868
4.880,-0.462,-0.511,1.610,1.296,-7.956,5.145,3.944,-11.724,8.453,0.184,0.511,0.259,-0.115,0.358,1.084,-0.348,0.008,1.087,0.482,0.876,0.496,0.868,0.496,0.868
4.908,-0.780,-0.341,2.059,1.291,-7.985,5.158,3.973,-11.899,8.566,0.222,0.520,0.205,-0.109,0.359,1.087,-0.351,0.020,1.057,0.482,0.876,0.496,0.868,0.496,0.868
4.936,-0.210,-0.082,0.061,1.281,-8.030,5.186,4.023,-12.211,8.768,0.448,0.351,0.175,-0.106,0.361,1.089,-0.359,0.032,1.068,0.482,0.876,0.496,0.868,0.496,0.868
4.964,0.100,-1.335,-0.802,1.276,-8.050,5.197,4.047,-12.364,8.866,0.261,0.407,0.200,-0.098,0.366,1.093,-0.367,0.030,1.091,0.482,0.876,0.496,0.868,0.496,0.868
4.992,-1.082,-2.269,1.000,1.270,-8.074,5.209,4.074,-12.533,8.975,-0.279,-0.097,-0.178,-0.094,0.370,1.095,-0.373,0.037,1.111,0.482,0.876,0.496,0.868,0.496,0.868
5.017,-3.871,-0.158,3.482,1.246,-8.119,5.241,4.125,-12.857,9.184,-0.527,-0.782,-0.590,-0.091,0.371,1.096,-0.336,0.019,1.171,0.482,0.876,0.496,0.868,0.496,0.868
5.044,-2.453,-0.416,2.649,1.226,-8.139,5.265,4.149,-13.020,9.290,0.059,-0.728,-0.143,-0.088,0.369,1.095,-0.311,-0.002,1.190,0.482,0.876,0.496,0.868,0.496,0.868
5.070,-0.993,-1.561,0.437,1.204,-8.160,5.290,4.174,-13.183,9.395,0.144,-0.075,0.086,-0.087,0.367,1.095,-0.316,-0.015,1.169,0.482,0.876,0.496,0.868,0.496,0.868
5.097,-1.326,-0.566,-0.038,1.163,-8.201,5.330,4.220,-13.502,9.602,-0.308,0.426,-0.007,-0.086,0.365,1.094,-0.307,-0.015,1.147,0.482,0.876,0.496,0.868,0.496,0.868
5.126,-2.013,0.320,0.775,1.140,-8.221,5.349,4.244,-13.674,9.714,-0.754,0.349,-0.233,-0.088,0.364,1.092,-0.279,0.001,1.134,0.482,0.876,0.496,0.868,0.496,0.868
5.152,-1.839,0.103,0.159,1.116,-8.238,5.367,4.268,-13.847,9.827,-0.389,0.043,-0.133,-0.091,0.365,1.091,-0.266,0.010,1.113,0.482,0.876,0.496,0.868,0.496,0.868
5.180,-0.669,-0.948,-0.810,1.070,-8.268,5.394,4.309,-14.161,10.031,-0.072,-0.149,0.004,-0.093,0.365,1.090,-0.248,0.009,1.126,0.482,0.876,0.496,0.868,0.496,0.868
5.207,-0.434,-0.867,-1.210,1.046,-8.284,5.403,4.331,-14.335,10.145,0.044,0.137,0.132,-0.098,0.366,1.088,-0.243,0.005,1.134,0.482,0.876,0.496,0.868,0.496,0.868
5.237,-0.050,-0.892,-2.380,1.006,-8.315,5.410,4.372,-14.667,10.361,0.105,0.392,0.126,-0.100,0.366,1.088,-0.246,0.015,1.116,0.482,0.876,0.496,0.868,0.496,0.868
5.264,0.355,-1.508,-2.495,0.989,-8.331,5.406,4.392,-14.833,10.469,0.345,0.646,0.131,-0.102,0.370,1.088,-0.253,0.026,1.132,0.482,0.876,0.496,0.868,0.496,0.868
5.291,0.889,-1.123,-2.458,0.975,-8.348,5.397,4.412,-15.000,10.577,0.338,0.500,0.084,-0.102,0.374,1.088,-0.267,0.035,1.123,0.714,1.319,0.718,1.316,0.718,1.316
5.317,0.631,-1.095,-2.096,0.956,-8.385,5.369,4.451,-15.334,10.793,0.310,0.250,-0.001,-0.101,0.378,1.088,-0.286,0.047,1.112,0.714,1.319,0.718,1.316,0.718,1.316
5.346,0.218,-0.985,-1.518,0.950,-8.403,5.351,4.470,-15.502,10.900,0.022,0.154,-0.235,-0.099,0.386,1.089,-0.290,0.050,1.136,0.714,1.319,0.718,1.316,0.718,1.316
5.373,-0.282,-0.871,-0.072,0.939,-8.441,5.315,4.507,-15.839,11.113,-0.072,0.049,-0.286,-0.098,0.389,1.088,-0.286,0.054,1.127,0.714,1.319,0.718,1.316,0.718,1.316
5.403,-0.701,-0.186,0.599,0.934,-8.458,5.301,4.525,-16.000,11.214,-0.134,-0.136,-0.334,-0.097,0.393,1.087,-0.277,0.051,1.151,0.714,1.319,0.718,1.316,0.718,1.316
5.431,-1.099,0.476,0.924,0.926,-8.475,5.287,4.546,-16.186,11.330,-0.167,0.048,-0.228,-0.096,0.398,1.083,-0.274,0.052,1.146,0.714,1.319,0.718,1.316,0.718,1.316
5.461,-0.619,0.412,1.388,0.909,-8.499,5.272,4.581,-16.517,11.536,-0.093,-0.016,-0.061,-0.097,0.400,1.081,-0.264,0.057,1.144,0.714,1.319,0.718,1.316,0.718,1.316
5.488,-0.346,0.621,1.669,0.900,-8.508,5.269,4.600,-16.687,11.642,0.109,-0.125,0.165,-0.098,0.403,1.077,-0.261,0.053,1.137,0.714,1.319,0.718,1.316,0.718,1.316
5.517,0.567,0.588,0.597,0.883,-8.519,5.273,4.635,-17.028,11.852,0.336,-0.131,0.183,-0.097,0.405,1.076,-0.276,0.045,1.109,0.714,1.319,0.718,1.316,0.718,1.316
5.546,1.139,-1.022,-1.251,0.878,-8.524,5.275,4.653,-17.198,11.958,0.421,0.061,-0.005,-0.095,0.406,1.075,-0.286,0.042,1.092,0.714,1.319,0.718,1.316,0.718,1.316
5.574,-1.733,-0.542,1.709,0.872,-8.537,5.273,4.687,-17.531,12.164,-0.465,-0.007,-0.177,-0.093,0.407,1.074,-0.289,0.042,1.099,0.714,1.319,0.718,1.316,0.718,1.316
5.603,-3.243,-0.123,3.498,0.864,-8.544,5.277,4.704,-17.702,12.269,-1.552,-0.208,-0.210,-0.093,0.407,1.073,-0.238,0.035,1.139,0.714,1.319,0.718,1.316,0.718,1.316
5.632,-2.949,-0.073,3.905,0.848,-8.551,5.289,4.724,-17.898,12.391,-1.163,0.349,0.275,-0.102,0.407,1.071,-0.204,0.035,1.161,0.714,1.319,0.718,1.316,0.718,1.316
5.659,-0.535,-1.106,-0.113,0.816,-8.563,5.319,4.755,-18.215,12.587,-0.266,0.417,0.413,-0.109,0.409,1.071,-0.166,0.045,1.181,0.714,1.319,0.718,1.316,0.718,1.316
5.684,-0.262,-1.208,-0.343,0.800,-8.571,5.333,4.771,-18.386,12.693,-0.028,-0.151,0.193,-0.121,0.412,1.073,-0.162,0.040,1.158,0.714,1.319,0.718,1.316,0.718,1.316
5.710,-0.291,-1.224,0.465,0.784,-8.582,5.346,4.788,-18.566,12.806,-0.150,-0.334,0.004,-0.127,0.412,1.075,-0.161,0.036,1.158,0.714,1.319,0.718,1.316,0.718,1.316
5.735,-0.498,-1.027,0.126,0.755,-8.605,5.370,4.818,-18.910,13.020,-0.116,-0.415,-0.180,-0.132,0.412,1.076,-0.148,0.014,1.176,0.714,1.319,0.718,1.316,0.718,1.316
5.761,-0.489,-0.225,-0.311,0.742,-8.618,5.381,4.833,-19.082,13.127,-0.111,-0.285,-0.286,-0.137,0.412,1.076,-0.142,0.009,1.164,0.714,1.319,0.718,1.316,0.718,1.316
5.786,0.106,-0.174,-1.026,0.729,-8.629,5.389,4.848,-19.255,13.235,-0.111,-0.018,-0.275,-0.142,0.410,1.076,-0.139,0.009,1.161,0.714,1.319,0.718,1.316,0.718,1.316
5.813,1.002,-0.240,-1.548,0.711,-8.650,5.395,4.877,-19.600,13.451,0.077,0.291,-0.073,-0.149,0.409,1.075,-0.144,0.021,1.123,0.952,1.759,0.917,1.775,0.917,1.775
5.841,1.163,-0.746,-1.592,0.706,-8.660,5.392,4.891,-19.773,13.559,0.100,0.327,0.017,-0.153,0.410,1.074,-0.152,0.024,1.114,0.952,1.759,0.917,1.775,0.917,1.775
5.871,1.757,-0.568,-1.058,0.704,-8.671,5.388,4.906,-19.955,13.672,0.166,0.153,0.081,-0.158,0.412,1.073,-0.154,0.028,1.121,0.952,1.759,0.917,1.775,0.917,1.775
5.901,1.406,-0.726,-0.323,0.710,-8.693,5.376,4.933,-20.294,13.882,0.214,-0.083,0.040,-0.159,0.413,1.073,-0.172,0.020,1.127,0.952,1.759,0.917,1.775,0.917,1.775
5.926,0.697,-0.422,0.369,0.717,-8.704,5.370,4.948,-20.468,13.989,0.049,-0.158,-0.178,-0.161,0.415,1.073,-0.178,0.011,1.129,0.952,1.759,0.917,1.775,0.917,1.775
5.951,0.350,-0.223,0.943,0.725,-8.715,5.366,4.963,-20.651,14.102,-0.002,-0.086,-0.181,-0.161,0.415,1.072,-0.178,0.008,1.152,0.952,1.759,0.917,1.775,0.917,1.775
5.975,0.310,0.355,1.138,0.738,-8.733,5.365,4.991,-20.991,14.311,0.053,-0.060,-0.139,-0.162,0.415,1.071,-0.180,0.003,1.143,0.952,1.759,0.917,1.775,0.917,1.775
6.000,0.371,0.562,1.254,0.745,-8.739,5.368,5.005,-21.157,14.413,0.148,-0.068,-0.078,-0.162,0.415,1.070,-0.187,0.000,1.132,0.952,1.759,0.917,1.775,0.917,1.775
6.026,0.556,0.653,1.052,0.752,-8.744,5.374,5.021,-21.341,14.526,0.321,0.136,0.037,-0.161,0.414,1.068,-0.191,-0.001,1.131,0.952,1.759,0.917,1.775,0.917,1.775
6.050,0.525,0.794,0.970,0.760,-8.747,5.381,5.037,-21.524,14.639,0.319,0.049,-0.006,-0.160,0.414,1.067,-0.203,0.002,1.119,0.952,1.759,0.917,1.775,0.917,1.775
6.076,-0.558,1.619,1.623,0.773,-8.747,5.398,5.066,-21.857,14.844,0.298,-0.024,-0.076,-0.158,0.415,1.066,-0.216,0.006,1.110,0.952,1.759,0.917,1.775,0.917,1.775
6.101,-0.457,1.430,0.698,0.778,-8.742,5.410,5.082,-22.040,14.957,0.325,0.133,-0.075,-0.156,0.415,1.065,-0.222,0.008,1.106,0.952,1.759,0.917,1.775,0.917,1.775
6.125,-0.167,0.191,-0.060,0.782,-8.736,5.421,5.098,-22.215,15.065,0.337,0.520,0.161,-0.150,0.417,1.064,-0.230,0.018,1.097,0.952,1.759,0.917,1.775,0.917,1.775
6.149,-0.639,-0.273,0.177,0.785,-8.731,5.432,5.114,-22.390,15.174,0.097,0.332,0.056,-0.147,0.419,1.063,-0.235,0.026,1.093,0.952,1.759,0.917,1.775,0.917,1.775
6.175,-1.812,-0.362,0.312,0.782,-8.724,5.451,5.144,-22.730,15.386,0.032,0.039,-0.073,-0.144,0.422,1.063,-0.225,0.032,1.103,0.952,1.759,0.917,1.775,0.917,1.775
6.199,-1.502,-0.893,-0.400,0.775,-8.722,5.461,5.162,-22.931,15.512,0.166,-0.177,-0.100,-0.141,0.424,1.063,-0.213,0.028,1.113,0.952,1.759,0.917,1.775,0.917,1.775
6.223,-1.292,-1.537,-0.270,0.768,-8.723,5.467,5.176,-23.088,15.610,0.031,-0.386,-0.116,-0.135,0.426,1.062,-0.217,0.021,1.094,0.952,1.759,0.917,1.775,0.917,1.775
6.248,-1.167,-1.168,0.215,0.758,-8.727,5.474,5.191,-23.262,15.719,-0.206,-0.301,-0.182,-0.132,0.425,1.061,-0.204,0.009,1.095,0.952,1.759,0.917,1.775,0.917,1.775
6.274,-0.888,-0.598,-0.736,0.735,-8.739,5.484,5.220,-23.603,15.933,-0.299,-0.105,-0.219,-0.130,0.425,1.060,-0.183,0.002,1.094,0.952,1.759,0.917,1.775,0.917,1.775
6.299,-0.536,-0.486,-1.120,0.722,-8.746,5.487,5.235,-23.778,16.043,-0.315,0.055,-0.197,-0.129,0.424,1.058,-0.176,0.003,1.097,1.196,2.195,1.147,2.219,1.147,2.219
6.324,-0.271,-0.534,-0.894,0.709,-8.753,5.487,5.250,-23.961,16.158,-0.418,-0.033,-0.155,-0.130,0.423,1.055,-0.164,0.004,1.109,1.196,2.195,1.147,2.219,1.147,2.219
6.355,-0.272,0.138,-0.697,0.688,-8.767,5.483,5.277,-24.303,16.372,-0.392,-0.065,-0.181,-0.131,0.423,1.053,-0.146,0.006,1.113,1.196,2.195,1.147,2.219,1.147,2.219
6.384,0.121,0.224,-1.148,0.677,-8.772,5.479,5.291,-24.487,16.487,-0.100,0.013,-0.072,-0.135,0.422,1.048,-0.140,0.006,1.108,1.196,2.195,1.147,2.219,1.147,2.219
6.416,0.655,0.322,-1.289,0.662,-8.780,5.465,5.318,-24.829,16.700,0.015,-0.029,-0.009,-0.137,0.422,1.046,-0.142,0.009,1.095,1.196,2.195,1.147,2.219,1.147,2.219
6.448,0.828,0.294,-1.565,0.657,-8.783,5.455,5.331,-25.014,16.815,0.266,-0.125,0.039,-0.140,0.420,1.043,-0.153,0.012,1.078,1.196,2.195,1.147,2.219,1.147,2.219
6.481,0.861,0.618,-1.170,0.654,-8.785,5.431,5.357,-25.356,17.027,0.296,-0.153,0.046,-0.140,0.420,1.042,-0.174,0.010,1.052,1.196,2.195,1.147,2.219,1.147,2.219
6.512,0.902,0.531,-0.980,0.655,-8.783,5.416,5.371,-25.541,17.141,0.276,-0.193,0.084,-0.139,0.417,1.040,-0.178,0.005,1.027,1.196,2.195,1.147,2.219,1.147,2.219
6.543,0.539,0.742,-0.189,0.662,-8.779,5.388,5.397,-25.892,17.357,0.230,-0.200,0.061,-0.138,0.416,1.039,-0.194,-0.002,1.009,1.196,2.195,1.147,2.219,1.147,2.219
6.571,0.339,0.612,-0.135,0.666,-8.774,5.374,5.412,-26.085,17.476,0.230,-0.140,-0.029,-0.135,0.412,1.038,-0.203,-0.003,1.001,1.196,2.195,1.147,2.219,1.147,2.219
6.603,-0.146,0.428,0.376,0.675,-8.764,5.353,5.437,-26.418,17.680,0.191,-0.111,-0.055,-0.133,0.410,1.038,-0.212,-0.006,1.014,1.196,2.195,1.147,2.219,1.147,2.219
6.633,-0.693,1.161,0.110,0.679,-8.751,5.339,5.464,-26.769,17.893,-0.006,0.020,-0.035,-0.129,0.406,1.037,-0.212,-0.000,1.015,1.196,2.195,1.147,2.219,1.147,2.219
6.664,-0.854,1.667,-0.133,0.679,-8.742,5.333,5.477,-26.935,17.995,0.138,-0.183,0.354,-0.125,0.403,1.036,-0.213,-0.002,1.015,1.196,2.195,1.147,2.219,1.147,2.219
6.693,0.983,-1.346,0.132,0.677,-8.720,5.323,5.505,-27.293,18.213,0.222,-0.287,0.663,-0.123,0.401,1.037,-0.219,0.003,1.005,1.196,2.195,1.147,2.219,1.147,2.219
6.723,0.955,-1.987,0.410,0.678,-8.714,5.319,5.519,-27.467,18.320,-0.126,-0.668,0.443,-0.118,0.395,1.043,-0.226,-0.038,1.039,1.196,2.195,1.147,2.219,1.147,2.219
6.752,-0.573,-1.498,2.133,0.679,-8.712,5.319,5.532,-27.642,18.426,-0.732,-0.505,0.040,-0.117,0.391,1.046,-0.223,-0.054,1.058,1.196,2.195,1.147,2.219,1.147,2.219
6.783,-1.752,0.668,-0.184,0.675,-8.711,5.326,5.559,-27.990,18.639,-0.683,0.044,-0.099,-0.117,0.386,1.050,-0.181,-0.062,1.083,1.196,2.195,1.147,2.219,1.147,2.219
6.814,-0.097,-0.749,-2.679,0.661,-8.709,5.325,5.586,-28.338,18.852,-0.083,0.315,0.281,-0.120,0.380,1.055,-0.169,-0.039,1.055,1.445,2.629,1.381,2.660,1.381,2.660
6.844,-0.213,-1.130,-1.512,0.654,-8.710,5.318,5.599,-28.513,18.958,-0.688,-0.011,0.239,-0.124,0.376,1.062,-0.156,-0.043,1.064,1.445,2.629,1.381,2.660,1.381,2.660
6.874,-0.373,-1.033,-0.438,0.641,-8.718,5.303,5.624,-28.852,19.165,-0.892,0.180,0.132,-0.128,0.375,1.065,-0.116,-0.046,1.089,1.445,2.629,1.381,2.660,1.381,2.660
6.903,-0.092,-0.866,-0.430,0.634,-8.724,5.295,5.637,-29.027,19.271,-0.695,-0.121,0.001,-0.139,0.374,1.071,-0.099,-0.042,1.072,1.445,2.629,1.381,2.660,1.381,2.660
6.935,-0.263,0.308,0.310,0.622,-8.738,5.280,5.663,-29.385,19.488,-0.600,-0.429,-0.110,-0.146,0.372,1.074,-0.067,-0.057,1.091,1.445,2.629,1.381,2.660,1.381,2.660
6.964,-0.019,0.648,-0.117,0.617,-8.742,5.275,5.675,-29.551,19.589,-0.254,-0.040,-0.048,-0.160,0.369,1.078,-0.061,-0.060,1.078,1.445,2.629,1.381,2.660,1.381,2.660
6.994,1.159,0.476,-0.359,0.609,-8.746,5.263,5.699,-29.901,19.799,-0.128,0.188,0.104,-0.167,0.367,1.079,-0.061,-0.058,1.069,1.445,2.629,1.381,2.660,1.381,2.660
7.023,1.554,0.188,-0.095,0.610,-8.747,5.257,5.712,-30.084,19.910,0.043,0.108,0.170,-0.179,0.365,1.083,-0.057,-0.056,1.059,1.445,2.629,1.381,2.660,1.381,2.660
7.053,1.407,-0.458,0.378,0.620,-8.748,5.247,5.736,-30.434,20.120,0.109,-0.023,0.072,-0.184,0.365,1.085,-0.069,-0.060,1.054,1.445,2.629,1.381,2.660,1.381,2.660
7.085,0.922,0.356,1.014,0.627,-8.749,5.245,5.749,-30.609,20.225,0.001,0.083,-0.205,-0.192,0.364,1.088,-0.077,-0.066,1.058,1.445,2.629,1.381,2.660,1.381,2.660
7.116,0.279,1.039,2.474,0.644,-8.747,5.248,5.774,-30.959,20.435,-0.110,0.230,-0.265,-0.196,0.364,1.089,-0.080,-0.060,1.060,1.445,2.629,1.381,2.660,1.381,2.660
7.145,0.848,0.906,2.360,0.653,-8.743,5.257,5.787,-31.134,20.540,0.132,0.216,0.022,-0.202,0.365,1.089,-0.076,-0.055,1.056,1.445,2.629,1.381,2.660,1.381,2.660
7.173,1.281,0.611,1.052,0.674,-8.731,5.282,5.814,-31.483,20.750,0.434,0.119,0.132,-0.204,0.366,1.089,-0.090,-0.054,1.055,1.445,2.629,1.381,2.660,1.381,2.660
7.203,0.868,0.569,0.876,0.687,-8.725,5.296,5.828,-31.667,20.861,0.472,0.051,0.022,-0.205,0.368,1.090,-0.114,-0.053,1.071,1.445,2.629,1.381,2.660,1.381,2.660
7.233,-0.071,1.139,0.470,0.710,-8.709,5.323,5.855,-32.007,21.068,0.347,0.170,-0.065,-0.204,0.370,1.091,-0.122,-0.053,1.076,1.445,2.629,1.381,2.660,1.381,2.660
7.263,-0.028,0.508,0.129,0.719,-8.699,5.336,5.869,-32.172,21.170,-0.109,0.362,-0.038,-0.201,0.374,1.091,-0.134,-0.035,1.078,1.445,2.629,1.381,2.660,1.381,2.660
7.293,-1.836,0.047,1.716,0.734,-8.681,5.363,5.899,-32.528,21.389,-0.268,-0.015,-0.197,-0.201,0.377,1.091,-0.122,-0.029,1.091,1.676,3.072,1.617,3.101,1.617,3.101
7.323,-1.911,0.052,1.184,0.735,-8.674,5.379,5.913,-32.702,21.496,-0.050,-0.296,-0.239,-0.201,0.380,1.090,-0.107,-0.032,1.104,1.676,3.072,1.617,3.101,1.617,3.101
7.354,-0.842,-1.443,0.645,0.729,-8.665,5.409,5.943,-33.049,21.712,-0.002,-0.283,-0.132,-0.201,0.381,1.088,-0.094,-0.051,1.126,1.676,3.072,1.617,3.101,1.617,3.101
7.384,-1.468,-0.999,1.153,0.723,-8.665,5.424,5.957,-33.213,21.815,-0.567,-0.184,-0.442,-0.203,0.380,1.085,-0.089,-0.057,1.115,1.676,3.072,1.617,3.101,1.617,3.101
7.416,-1.635,0.689,0.257,0.703,-8.665,5.456,5.986,-33.569,22.038,-0.606,0.059,-0.489,-0.205,0.380,1.082,-0.055,-0.055,1.124,1.676,3.072,1.617,3.101,1.617,3.101
7.445,-0.648,0.658,-0.933,0.690,-8.664,5.470,6.000,-33.742,22.147,-0.142,0.315,-0.117,-0.211,0.380,1.075,-0.045,-0.039,1.097,1.676,3.072,1.617,3.101,1.617,3.101
7.475,0.487,0.392,-1.443,0.667,-8.658,5.486,6.027,-34.088,22.367,-0.050,0.184,-0.028,-0.214,0.381,1.072,-0.046,-0.023,1.073,1.676,3.072,1.617,3.101,1.617,3.101
7.505,0.712,0.411,-1.561,0.658,-8.654,5.488,6.042,-34.287,22.493,0.108,0.000,0.032,-0.220,0.383,1.067,-0.046,-0.022,1.055,1.676,3.072,1.617,3.101,1.617,3.101
7.535,1.283,0.573,-1.790,0.650,-8.645,5.483,6.066,-34.607,22.696,0.243,-0.072,0.076,-0.222,0.384,1.064,-0.059,-0.020,1.039,1.676,3.072,1.617,3.101,1.617,3.101
7.564,1.469,0.509,-2.191,0.650,-8.640,5.475,6.079,-34.780,22.805,0.470,-0.133,0.143,-0.223,0.385,1.061,-0.081,-0.016,1.015,1.676,3.072,1.617,3.101,1.617,3.101
7.594,1.494,0.517,-1.958,0.653,-8.634,5.463,6.093,-34.962,22.920,0.436,-0.186,0.149,-0.222,0.385,1.060,-0.088,-0.021,1.010,1.676,3.072,1.617,3.101,1.617,3.101
7.624,1.075,0.374,-0.463,0.665,-8.621,5.437,6.119,-35.307,23.138,0.520,-0.337,0.079,-0.218,0.383,1.060,-0.113,-0.031,1.007,1.676,3.072,1.617,3.101,1.617,3.101
7.655,0.386,0.355,0.633,0.682,-8.609,5.414,6.146,-35.643,23.350,0.567,-0.378,0.033,-0.215,0.381,1.059,-0.140,-0.049,1.004,1.676,3.072,1.617,3.101,1.617,3.101
7.685,-0.267,0.630,1.051,0.690,-8.603,5.407,6.159,-35.806,23.453,0.356,-0.415,-0.153,-0.207,0.376,1.059,-0.151,-0.055,0.999,1.676,3.072,1.617,3.101,1.617,3.101
7.714,-0.651,0.725,1.165,0.701,-8.587,5.399,6.187,-36.159,23.674,0.301,-0.356,-0.177,-0.202,0.373,1.058,-0.162,-0.068,0.997,1.676,3.072,1.617,3.101,1.617,3.101
7.744,-0.394,0.489,0.689,0.704,-8.579,5.400,6.201,-36.330,23.782,0.392,-0.252,-0.066,-0.192,0.365,1.056,-0.167,-0.076,0.987,1.676,3.072,1.617,3.101,1.617,3.101
7.773,-0.684,1.578,1.453,0.705,-8.560,5.406,6.229,-36.673,23.998,0.357,-0.090,-0.042,-0.186,0.360,1.055,-0.175,-0.077,0.975,1.676,3.072,1.617,3.101,1.617,3.101
7.803,0.254,1.183,0.357,0.705,-8.548,5.411,6.243,-36.836,24.101,0.613,-0.148,0.136,-0.176,0.354,1.054,-0.194,-0.076,0.945,1.676,3.072,1.617,3.101,1.617,3.101
7.833,1.053,-0.978,-1.345,0.710,-8.526,5.417,6.272,-37.186,24.323,0.793,-0.309,0.258,-0.169,0.350,1.053,-0.203,-0.082,0.927,1.676,3.072,1.617,3.101,1.617,3.101
7.862,-0.809,-0.577,-0.063,0.713,-8.520,5.417,6.285,-37.348,24.426,0.434,-0.468,0.090,-0.162,0.346,1.053,-0.228,-0.111,0.928,1.676,3.072,1.617,3.101,1.617,3.101
7.893,-2.479,0.714,0.862,0.712,-8.513,5.418,6.300,-37.526,24.540,-0.764,0.298,-0.266,-0.151,0.338,1.053,-0.200,-0.101,0.937,1.676,3.072,1.617,3.101,1.617,3.101
7.924,-1.269,-0.149,-1.473,0.699,-8.498,5.422,6.328,-37.867,24.756,-0.073,0.277,0.323,-0.146,0.334,1.051,-0.166,-0.081,0.922,1.676,3.072,1.617,3.101,1.617,3.101
7.952,-0.621,-0.917,-1.266,0.689,-8.492,5.420,6.342,-38.037,24.865,-0.305,0.068,0.319,-0.145,0.333,1.051,-0.161,-0.078,0.931,1.676,3.072,1.617,3.101,1.617,3.101
7.980,-0.792,-0.050,-0.093,0.668,-8.485,5.414,6.369,-38.368,25.076,-0.528,0.043,0.195,-0.145,0.332,1.052,-0.133,-0.082,0.942,1.676,3.072,1.617,3.101,1.617,3.101
8.008,-0.348,0.213,-0.865,0.656,-8.483,5.411,6.382,-38.537,25.184,-0.389,0.430,0.153,-0.147,0.332,1.054,-0.122,-0.074,0.925,1.676,3.072,1.617,3.101,1.617,3.101
8.035,0.340,0.182,-1.141,0.637,-8.476,5.398,6.409,-38.885,25.406,-0.374,0.542,0.198,-0.149,0.333,1.055,-0.107,-0.054,0.911,1.676,3.072,1.617,3.101,1.617,3.101
8.062,0.515,0.265,-1.057,0.629,-8.473,5.389,6.421,-39.054,25.514,-0.352,0.496,0.195,-0.152,0.335,1.057,-0.096,-0.047,0.892,1.676,3.072,1.617,3.101,1.617,3.101
8.091,0.835,0.113,-1.007,0.624,-8.470,5.379,6.434,-39.224,25.622,-0.095,0.235,0.228,-0.158,0.341,1.061,-0.098,-0.039,0.904,1.676,3.072,1.617,3.101,1.617,3.101
8.118,1.700,-0.391,-1.128,0.622,-8.465,5.356,6.459,-39.563,25.836,0.032,0.131,0.258,-0.160,0.344,1.063,-0.105,-0.041,0.893,1.676,3.072,1.617,3.101,1.617,3.101
8.144,1.756,-0.284,-0.793,0.627,-8.464,5.343,6.471,-39.732,25.943,0.035,0.061,0.143,-0.165,0.350,1.068,-0.103,-0.041,0.907,1.676,3.072,1.617,3.101,1.617,3.101
8.176,1.443,-0.065,-0.230,0.643,-8.463,5.318,6.497,-40.070,26.156,0.039,0.015,0.077,-0.167,0.353,1.071,-0.112,-0.048,0.905,1.676,3.072,1.617,3.101,1.617,3.101
8.207,1.191,0.064,0.456,0.654,-8.463,5.307,6.509,-40.231,26.257,0.000,0.013,-0.020,-0.170,0.358,1.076,-0.121,-0.051,0.882,1.676,3.072,1.617,3.101,1.617,3.101
8.237,0.852,0.891,1.099,0.680,-8.460,5.292,6.536,-40.578,26.475,0.044,0.040,-0.048,-0.171,0.360,1.077,-0.128,-0.051,0.869,1.676,3.072,1.617,3.101,1.617,3.101
8.266,1.247,0.900,0.946,0.693,-8.457,5.289,6.550,-40.747,26.580,0.230,0.286,0.108,-0.173,0.364,1.081,-0.128,-0.051,0.863,1.676,3.072,1.617,3.101,1.617,3.101
8.297,1.264,0.615,0.910,0.723,-8.447,5.289,6.578,-41.077,26.787,0.314,0.312,0.153,-0.173,0.367,1.083,-0.149,-0.042,0.867,1.676,3.072,1.617,3.101,1.617,3.101
8.327,0.519,1.097,1.103,0.740,-8.440,5.291,6.593,-41.254,26.898,0.219,0.172,-0.062,-0.171,0.372,1.086,-0.163,-0.036,0.859,1.676,3.072,1.617,3.101,1.617,3.101
8.357,-0.154,0.505,0.823,0.768,-8.422,5.302,6.622,-41.583,27.104,0.082,0.310,-0.139,-0.169,0.376,1.087,-0.167,-0.027,0.863,1.676,3.072,1.617,3.101,1.617,3.101
8.387,-0.816,-0.204,1.152,0.780,-8.413,5.310,6.639,-41.760,27.216,-0.112,0.258,-0.189,-0.167,0.383,1.089,-0.165,-0.019,0.893,1.676,3.072,1.617,3.101,1.617,3.101
8.416,-2.104,0.372,1.287,0.791,-8.397,5.331,6.670,-42.096,27.429,-0.236,-0.128,-0.369,-0.166,0.387,1.089,-0.147,-0.017,0.897,1.676,3.072,1.617,3.101,1.617,3.101
8.446,-1.554,0.118,0.218,0.790,-8.388,5.345,6.688,-42.289,27.551,0.056,-0.162,-0.280,-0.166,0.392,1.086,-0.135,-0.018,0.873,1.676,3.072,1.617,3.101,1.617,3.101
8.477,-1.366,-0.903,0.708,0.781,-8.379,5.365,6.717,-42.591,27.744,0.090,-0.232,-0.184,-0.166,0.394,1.084,-0.123,-0.031,0.878,1.676,3.072,1.617,3.101,1.617,3.101
8.507,-1.795,-0.420,0.655,0.772,-8.377,5.377,6.733,-42.767,27.857,-0.426,0.029,-0.345,-0.167,0.395,1.080,-0.114,-0.036,0.900,1.676,3.072,1.617,3.101,1.617,3.101
8.536,-0.795,0.281,-1.020,0.749,-8.373,5.396,6.763,-43.102,28.072,-0.326,0.215,-0.205,-0.168,0.396,1.077,-0.089,-0.027,0.927,1.676,3.072,1.617,3.101,1.617,3.101
8.565,-0.414,0.317,-1.582,0.737,-8.371,5.402,6.778,-43.269,28.180,-0.112,0.186,-0.010,-0.172,0.399,1.071,-0.083,-0.013,0.921,1.676,3.072,1.617,3.101,1.617,3.101
8.597,0.423,0.059,-1.854,0.715,-8.366,5.402,6.806,-43.596,28.391,-0.023,0.028,0.089,-0.174,0.401,1.068,-0.083,-0.004,0.902,1.676,3.072,1.617,3.101,1.617,3.101
8.626,0.798,0.080,-1.936,0.707,-8.363,5.396,6.821,-43.771,28.505,0.225,-0.060,0.261,-0.177,0.403,1.065,-0.084,-0.007,0.887,1.676,3.072,1.617,3.101,1.617,3.101
8.654,1.883,-0.184,-2.655,0.700,-8.359,5.373,6.849,-44.106,28.720,0.359,-0.086,0.314,-0.178,0.404,1.065,-0.104,-0.009,0.883,1.676,3.072,1.617,3.101,1.617,3.101
8.683,1.817,-0.117,-2.529,0.703,-8.358,5.357,6.863,-44.264,28.822,0.319,-0.081,0.236,-0.177,0.405,1.065,-0.128,-0.008,0.876,1.676,3.072,1.617,3.101,1.617,3.101
8.713,1.063,0.415,-1.537,0.716,-8.355,5.315,6.892,-44.607,29.041,0.242,-0.165,0.119,-0.175,0.405,1.066,-0.149,-0.011,0.859,1.676,3.072,1.617,3.101,1.617,3.101
8.743,0.859,0.161,-1.050,0.725,-8.352,5.293,6.906,-44.774,29.147,0.161,-0.145,0.038,-0.171,0.405,1.068,-0.152,-0.017,0.859,1.676,3.072,1.617,3.101,1.617,3.101
8.771,0.322,0.106,-0.088,0.734,-8.350,5.270,6.922,-44.958,29.263,0.020,-0.110,-0.031,-0.169,0.404,1.069,-0.158,-0.020,0.846,1.676,3.072,1.617,3.101,1.617,3.101
8.801,-0.647,0.519,1.044,0.749,-8.344,5.238,6.951,-45.275,29.463,-0.021,-0.175,-0.122,-0.167,0.403,1.070,-0.154,-0.025,0.881,1.916,3.511,1.948,3.476,1.948,3.476
8.832,-0.665,0.604,0.984,0.753,-8.340,5.227,6.966,-45.442,29.567,0.099,-0.193,-0.100,-0.164,0.400,1.070,-0.154,-0.031,0.916,1.916,3.511,1.948,3.476,1.948,3.476
8.863,0.098,1.105,1.682,0.758,-8.330,5.214,6.996,-45.775,29.776,0.142,0.056,0.142,-0.161,0.397,1.071,-0.157,-0.034,0.921,1.916,3.511,1.948,3.476,1.948,3.476
8.891,0.997,0.373,0.170,0.761,-8.322,5.212,7.012,-45.950,29.885,0.318,0.110,0.210,-0.159,0.396,1.071,-0.168,-0.034,0.920,1.916,3.511,1.948,3.476,1.948,3.476
8.921,-0.132,-1.542,0.086,0.770,-8.313,5.208,7.042,-46.275,30.089,0.283,-0.075,0.100,-0.156,0.395,1.072,-0.170,-0.046,0.920,1.916,3.511,1.948,3.476,1.948,3.476
8.950,-2.587,0.661,1.382,0.773,-8.311,5.207,7.057,-46.441,30.193,-1.005,-1.093,-0.760,-0.153,0.390,1.072,-0.164,-0.060,0.912,1.916,3.511,1.948,3.476,1.948,3.476
8.981,-3.161,1.567,2.579,0.759,-8.303,5.214,7.088,-46.773,30.401,-1.216,-0.767,-0.655,-0.155,0.385,1.070,-0.106,-0.083,0.932,1.916,3.511,1.948,3.476,1.948,3.476
9.011,-1.194,-0.498,1.906,0.744,-8.297,5.225,7.103,-46.947,30.511,-0.192,-0.051,0.491,-0.162,0.375,1.065,-0.080,-0.092,0.916,1.916,3.511,1.948,3.476,1.948,3.476
9.040,0.716,-1.533,0.189,0.719,-8.292,5.249,7.132,-47.271,30.715,0.305,-0.294,0.545,-0.166,0.370,1.065,-0.076,-0.114,0.925,1.916,3.511,1.948,3.476,1.948,3.476
9.069,0.407,-0.807,-0.367,0.710,-8.295,5.259,7.146,-47.428,30.815,-0.022,-0.205,0.020,-0.171,0.359,1.065,-0.080,-0.125,0.926,1.916,3.511,1.948,3.476,1.948,3.476
9.100,0.540,0.431,-1.163,0.696,-8.301,5.275,7.174,-47.769,31.031,-0.268,0.293,0.011,-0.174,0.354,1.066,-0.075,-0.124,0.930,1.916,3.511,1.948,3.476,1.948,3.476
9.131,0.572,0.511,-1.380,0.692,-8.302,5.278,7.189,-47.943,31.142,-0.235,0.622,0.022,-0.179,0.348,1.067,-0.075,-0.104,0.950,1.916,3.511,1.948,3.476,1.948,3.476
9.161,0.888,0.583,-1.569,0.688,-8.302,5.276,7.216,-48.267,31.347,-0.049,0.347,0.018,-0.182,0.348,1.067,-0.079,-0.080,0.957,1.916,3.511,1.948,3.476,1.948,3.476
9.191,1.337,0.389,-1.875,0.690,-8.300,5.270,7.230,-48.441,31.458,0.282,0.078,0.105,-0.187,0.348,1.068,-0.082,-0.077,0.971,1.916,3.511,1.948,3.476,1.948,3.476
9.220,1.279,-0.036,-1.144,0.699,-8.295,5.250,7.257,-48.765,31.663,0.236,0.084,0.092,-0.188,0.349,1.069,-0.104,-0.074,0.961,1.916,3.511,1.948,3.476,1.948,3.476
9.255,0.550,0.216,-0.116,0.716,-8.291,5.228,7.286,-49.096,31.873,0.105,-0.040,-0.079,-0.189,0.349,1.070,-0.114,-0.076,0.976,1.916,3.511,1.948,3.476,1.948,3.476
9.286,0.662,0.221,-0.074,0.724,-8.289,5.218,7.299,-49.254,31.972,0.291,-0.082,-0.046,-0.189,0.350,1.071,-0.124,-0.077,1.010,2.156,3.949,2.221,3.895,2.221,3.895
9.317,1.043,0.540,-0.044,0.744,-8.283,5.200,7.329,-49.594,32.186,0.318,-0.048,-0.007,-0.187,0.350,1.071,-0.146,-0.079,1.019,2.156,3.949,2.221,3.895,2.221,3.895
9.341,0.868,0.855,0.703,0.756,-8.278,5.193,7.344,-49.759,32.290,0.258,-0.084,-0.002,-0.186,0.350,1.071,-0.152,-0.081,1.021,2.156,3.949,2.221,3.895,2.221,3.895
9.367,0.720,0.792,1.492,0.767,-8.273,5.189,7.359,-49.916,32.388,0.323,-0.188,0.072,-0.182,0.348,1.072,-0.163,-0.084,1.007,2.156,3.949,2.221,3.895,2.221,3.895
9.392,0.396,0.553,1.248,0.791,-8.260,5.191,7.390,-50.247,32.596,0.491,-0.060,0.089,-0.179,0.347,1.072,-0.169,-0.088,1.003,2.156,3.949,2.221,3.895,2.221,3.895
9.418,-0.236,1.157,1.441,0.802,-8.252,5.195,7.406,-50.412,32.700,0.507,0.105,0.026,-0.176,0.347,1.072,-0.193,-0.088,0.999,2.156,3.949,2.221,3.895,2.221,3.895
9.448,-0.302,0.505,0.689,0.811,-8.243,5.202,7.423,-50.585,32.809,0.400,0.248,0.007,-0.167,0.346,1.073,-0.202,-0.081,1.021,2.156,3.949,2.221,3.895,2.221,3.895
9.478,-2.186,-0.710,2.430,0.823,-8.232,5.219,7.455,-50.907,33.012,0.159,-0.032,-0.094,-0.163,0.347,1.073,-0.198,-0.081,1.046,2.156,3.949,2.221,3.895,2.221,3.895
9.507,-3.197,-0.351,2.581,0.821,-8.229,5.234,7.472,-51.080,33.122,-0.345,-0.564,-0.617,-0.155,0.346,1.072,-0.196,-0.087,1.075,2.156,3.949,2.221,3.895,2.221,3.895
9.537,-2.142,-0.320,0.129,0.801,-8.225,5.268,7.505,-51.409,33.332,-0.242,-0.335,-0.539,-0.153,0.344,1.069,-0.171,-0.097,1.092,2.156,3.949,2.221,3.895,2.221,3.895
9.567,-1.788,-0.012,-0.449,0.787,-8.224,5.282,7.520,-51.565,33.432,-0.381,0.248,-0.156,-0.150,0.340,1.063,-0.156,-0.091,1.075,2.156,3.949,2.221,3.895,2.221,3.895
9.596,-1.726,0.751,-0.138,0.750,-8.220,5.307,7.551,-51.902,33.649,-0.672,0.429,-0.078,-0.150,0.339,1.060,-0.130,-0.066,1.064,2.156,3.949,2.221,3.895,2.221,3.895
9.627,-1.246,0.348,-0.488,0.730,-8.217,5.317,7.566,-52.066,33.755,-0.500,0.081,0.086,-0.154,0.340,1.055,-0.117,-0.058,1.049,2.156,3.949,2.221,3.895,2.221,3.895
9.657,-0.776,-0.106,-0.602,0.689,-8.210,5.330,7.594,-52.395,33.968,-0.308,-0.254,0.122,-0.158,0.340,1.053,-0.096,-0.058,1.078,2.156,3.949,2.221,3.895,2.221,3.895
9.689,-0.378,-0.042,-0.843,0.668,-8.207,5.334,7.609,-52.576,34.086,-0.082,-0.177,0.231,-0.164,0.339,1.050,-0.088,-0.062,1.065,2.156,3.949,2.221,3.895,2.221,3.895
9.721,0.737,-0.275,-2.212,0.637,-8.203,5.334,7.634,-52.887,34.288,0.093,0.013,0.315,-0.167,0.338,1.050,-0.092,-0.066,1.078,2.156,3.949,2.221,3.895,2.221,3.895
9.749,1.208,0.112,-2.797,0.625,-8.202,5.326,7.647,-53.051,34.395,0.286,0.115,0.241,-0.171,0.337,1.051,-0.100,-0.063,1.076,2.156,3.949,2.221,3.895,2.221,3.895
9.776,0.691,0.735,-1.889,0.612,-8.198,5.299,7.671,-53.379,34.608,0.186,-0.038,0.139,-0.172,0.337,1.052,-0.121,-0.057,1.069,2.156,3.949,2.221,3.895,2.221,3.895
9.803,0.758,0.549,-1.527,0.608,-8.194,5.278,7.685,-53.568,34.729,0.189,-0.158,0.106,-0.172,0.337,1.054,-0.134,-0.055,1.085,2.404,4.384,2.461,4.334,2.461,4.334
9.829,0.666,0.398,-1.063,0.606,-8.190,5.263,7.696,-53.707,34.819,0.121,-0.054,0.079,-0.172,0.336,1.056,-0.138,-0.058,1.092,2.404,4.384,2.461,4.334,2.461,4.334
9.855,-0.347,0.752,0.600,0.605,-8.180,5.230,7.719,-54.026,35.023,0.028,0.013,0.010,-0.171,0.335,1.057,-0.145,-0.056,1.102,2.404,4.384,2.461,4.334,2.461,4.334
9.879,-0.382,0.858,0.737,0.604,-8.173,5.216,7.732,-54.198,35.133,0.087,0.024,-0.023,-0.171,0.334,1.059,-0.148,-0.051,1.101,2.404,4.384,2.461,4.334,2.461,4.334
9.906,-0.040,0.588,0.400,0.602,-8.166,5.206,7.744,-54.362,35.237,0.424,0.021,0.050,-0.169,0.333,1.061,-0.155,-0.051,1.114,2.404,4.384,2.461,4.334,2.461,4.334
9.931,0.182,0.197,0.279,0.600,-8.158,5.197,7.757,-54.533,35.347,0.401,0.037,0.033,-0.166,0.333,1.062,-0.165,-0.050,1.130,2.404,4.384,2.461,4.334,2.461,4.334
9.958,-0.279,0.200,1.276,0.598,-8.146,5.186,7.779,-54.843,35.544,0.257,0.066,-0.028,-0.164,0.333,1.063,-0.178,-0.049,1.137,2.404,4.384,2.461,4.334,2.461,4.334
9.985,-0.213,0.368,1.215,0.597,-8.139,5.185,7.791,-55.006,35.647,0.216,0.213,-0.051,-0.158,0.333,1.064,-0.183,-0.046,1.174,2.404,4.384,2.461,4.334,2.461,4.334
10.010,0.175,0.829,0.535,0.595,-8.132,5.185,7.803,-55.168,35.751,0.211,0.369,0.024,-0.155,0.334,1.065,-0.192,-0.039,1.170,2.404,4.384,2.461,4.334,2.461,4.334
10.037,0.830,-0.491,0.177,0.596,-8.116,5.187,7.828,-55.501,35.964,0.059,0.458,0.137,-0.152,0.336,1.065,-0.202,-0.029,1.160,2.404,4.384,2.461,4.334,2.461,4.334
10.063,0.014,-1.561,2.138,0.597,-8.111,5.190,7.840,-55.664,36.068,-0.634,-0.484,-0.241,-0.148,0.339,1.066,-0.197,-0.026,1.153,2.404,4.384,2.461,4.334,2.461,4.334
10.089,-2.677,-0.052,3.349,0.596,-8.109,5.198,7.852,-55.826,36.171,-0.711,-0.723,-0.509,-0.148,0.339,1.066,-0.170,-0.036,1.154,2.404,4.384,2.461,4.334,2.461,4.334
10.117,-1.249,-0.167,0.298,0.581,-8.102,5.225,7.875,-56.150,36.380,-0.316,-0.423,-0.304,-0.150,0.338,1.065,-0.142,-0.055,1.184,2.404,4.384,2.461,4.334,2.461,4.334
10.143,-0.016,-1.229,-1.211,0.571,-8.101,5.237,7.887,-56.312,36.484,0.478,0.009,0.397,-0.151,0.336,1.064,-0.149,-0.056,1.199,2.404,4.384,2.461,4.334,2.461,4.334
10.171,0.455,-1.811,-1.709,0.563,-8.102,5.245,7.898,-56.474,36.589,0.252,0.070,0.387,-0.150,0.335,1.064,-0.151,-0.070,1.208,2.404,4.384,2.461,4.334,2.461,4.334
10.200,-0.217,-1.266,0.422,0.550,-8.114,5.253,7.920,-56.790,36.794,-0.203,0.065,0.271,-0.150,0.334,1.065,-0.144,-0.077,1.229,2.404,4.384,2.461,4.334,2.461,4.334
10.226,-0.536,-0.454,0.317,0.544,-8.123,5.257,7.931,-56.953,36.899,-0.446,-0.018,-0.131,-0.151,0.332,1.068,-0.136,-0.077,1.231,2.404,4.384,2.461,4.334,2.461,4.334
10.254,0.124,0.244,-1.673,0.531,-8.138,5.260,7.952,-57.278,37.109,-0.176,0.090,-0.197,-0.153,0.332,1.068,-0.123,-0.071,1.223,2.404,4.384,2.461,4.334,2.461,4.334
10.279,0.395,0.374,-1.818,0.526,-8.144,5.257,7.963,-57.441,37.215,-0.029,0.244,-0.133,-0.155,0.332,1.069,-0.129,-0.060,1.211,2.644,4.822,2.638,4.801,2.638,4.801
10.308,0.836,0.284,-1.790,0.523,-8.149,5.250,7.974,-57.612,37.325,0.051,0.447,0.046,-0.157,0.333,1.069,-0.129,-0.052,1.214,2.644,4.822,2.638,4.801,2.638,4.801
10.335,1.388,-0.096,-1.905,0.523,-8.157,5.229,7.995,-57.938,37.535,0.162,0.323,0.056,-0.159,0.335,1.069,-0.145,-0.037,1.211,2.644,4.822,2.638,4.801,2.638,4.801
10.361,1.397,-0.465,-1.748,0.527,-8.160,5.215,8.005,-58.093,37.634,0.378,0.250,0.002,-0.159,0.338,1.069,-0.162,-0.036,1.213,2.644,4.822,2.638,4.801,2.638,4.801
10.389,1.465,-0.466,-2.036,0.534,-8.165,5.198,8.015,-58.256,37.738,0.363,0.243,-0.184,-0.158,0.343,1.069,-0.172,-0.031,1.234,2.644,4.822,2.638,4.801,2.638,4.801
10.418,0.586,-0.168,-0.486,0.552,-8.174,5.158,8.038,-58.591,37.950,0.120,0.169,-0.206,-0.156,0.346,1.068,-0.191,-0.022,1.232,2.644,4.822,2.638,4.801,2.638,4.801
10.445,0.308,0.034,0.824,0.562,-8.179,5.141,8.049,-58.755,38.053,-0.139,0.006,-0.130,-0.154,0.351,1.066,-0.191,-0.022,1.261,2.644,4.822,2.638,4.801,2.638,4.801
10.475,-0.076,0.983,1.623,0.578,-8.184,5.119,8.071,-59.074,38.253,-0.054,0.024,-0.087,-0.153,0.354,1.065,-0.191,-0.019,1.255,2.644,4.822,2.638,4.801,2.638,4.801
10.501,0.134,1.108,1.560,0.585,-8.184,5.114,8.083,-59.246,38.361,0.086,0.126,0.005,-0.152,0.356,1.064,-0.195,-0.016,1.275,2.644,4.822,2.638,4.801,2.638,4.801
10.527,0.539,0.906,1.509,0.593,-8.182,5.112,8.095,-59.409,38.463,0.381,0.150,0.276,-0.150,0.361,1.062,-0.206,-0.013,1.276,2.644,4.822,2.638,4.801,2.638,4.801
10.554,0.633,0.951,2.233,0.608,-8.173,5.120,8.118,-59.728,38.662,0.407,0.018,0.260,-0.148,0.363,1.063,-0.228,-0.013,1.266,2.644,4.822,2.638,4.801,2.638,4.801
10.582,0.839,1.424,2.023,0.618,-8.166,5.130,8.131,-59.900,38.770,0.351,-0.057,0.172,-0.145,0.365,1.063,-0.236,-0.015,1.261,2.644,4.822,2.638,4.801,2.638,4.801
10.614,-1.005,0.110,2.673,0.636,-8.152,5.155,8.156,-60.218,38.971,0.153,0.303,0.033,-0.139,0.370,1.065,-0.252,-0.011,1.286,2.644,4.822,2.638,4.801,2.638,4.801
10.646,-3.311,1.691,3.738,0.640,-8.143,5.175,8.169,-60.389,39.079,-0.384,-0.167,-0.635,-0.134,0.374,1.065,-0.232,-0.002,1.294,2.644,4.822,2.638,4.801,2.638,4.801
10.677,-3.262,1.063,1.190,0.625,-8.120,5.223,8.194,-60.706,39.282,-0.042,-0.154,-0.450,-0.133,0.376,1.064,-0.208,0.005,1.306,2.644,4.822,2.638,4.801,2.638,4.801
10.703,-1.637,-0.921,0.101,0.609,-8.109,5.248,8.206,-60.868,39.387,0.326,0.060,-0.022,-0.131,0.377,1.062,-0.216,0.007,1.286,2.644,4.822,2.638,4.801,2.638,4.801
10.728,-1.632,-0.679,0.440,0.591,-8.100,5.271,8.219,-61.039,39.497,-0.159,0.137,0.105,-0.128,0.380,1.059,-0.206,0.006,1.273,2.644,4.822,2.638,4.801,2.638,4.801
10.754,-1.041,-0.288,-0.125,0.553,-8.087,5.311,8.241,-61.354,39.703,-0.341,0.199,0.046,-0.127,0.381,1.058,-0.187,0.013,1.298,2.644,4.822,2.638,4.801,2.638,4.801
10.778,-0.091,-0.962,-1.503,0.533,-8.083,5.328,8.252,-61.524,39.815,-0.205,0.177,0.121,-0.126,0.383,1.058,-0.185,0.016,1.309,2.644,4.822,2.638,4.801,2.638,4.801
10.807,0.373,-1.092,-2.085,0.517,-8.082,5.338,8.263,-61.686,39.922,0.075,0.167,0.235,-0.126,0.387,1.057,-0.185,0.015,1.316,2.890,5.258,2.767,5.284,2.767,5.284
10.833,0.174,-0.765,-1.557,0.490,-8.085,5.346,8.283,-62.009,40.135,-0.066,0.243,0.181,-0.126,0.390,1.058,-0.185,0.021,1.327,2.890,5.258,2.767,5.284,2.767,5.284
10.859,0.495,-0.788,-2.131,0.479,-8.089,5.343,8.293,-62.171,40.242,-0.086,0.280,0.133,-0.126,0.392,1.059,-0.184,0.026,1.324,2.890,5.258,2.767,5.284,2.767,5.284
10.885,0.930,-0.567,-2.757,0.471,-8.093,5.337,8.302,-62.325,40.344,0.342,0.181,0.189,-0.125,0.398,1.062,-0.196,0.034,1.317,2.890,5.258,2.767,5.284,2.767,5.284
10.910,0.906,-0.719,-2.960,0.466,-8.099,5.324,8.312,-62.495,40.456,0.381,0.077,0.183,-0.124,0.401,1.063,-0.204,0.036,1.321,2.890,5.258,2.767,5.284,2.767,5.284
10.937,0.351,-0.243,-1.576,0.460,-8.111,5.291,8.330,-62.819,40.668,0.249,-0.079,0.125,-0.122,0.404,1.065,-0.225,0.038,1.319,2.890,5.258,2.767,5.284,2.767,5.284
10.963,0.297,-0.271,-1.144,0.459,-8.118,5.270,8.340,-62.989,40.779,0.103,-0.232,0.104,-0.120,0.406,1.067,-0.230,0.034,1.337,2.890,5.258,2.767,5.284,2.767,5.284
10.987,0.277,-0.262,-1.018,0.459,-8.124,5.253,8.348,-63.135,40.874,0.116,-0.285,0.038,-0.116,0.408,1.070,-0.233,0.028,1.331,2.890,5.258,2.767,5.284,2.767,5.284
11.012,0.012,0.089,-0.689,0.459,-8.130,5.233,8.358,-63.306,40.984,0.023,-0.304,-0.016,-0.114,0.408,1.072,-0.237,0.024,1.324,2.890,5.258,2.767,5.284,2.767,5.284
11.038,-0.325,0.563,0.402,0.458,-8.138,5.198,8.376,-63.631,41.192,-0.064,-0.319,-0.020,-0.112,0.407,1.073,-0.236,0.014,1.319,2.890,5.258,2.767,5.284,2.767,5.284
11.064,-0.220,0.488,0.907,0.456,-8.139,5.184,8.385,-63.794,41.296,0.020,-0.327,0.083,-0.110,0.405,1.076,-0.234,0.007,1.320,2.890,5.258,2.767,5.284,2.767,5.284
11.089,0.020,0.310,0.996,0.455,-8.140,5.175,8.394,-63.949,41.395,0.132,-0.298,0.094,-0.109,0.402,1.077,-0.235,-0.002,1.324,2.890,5.258,2.767,5.284,2.767,5.284
11.118,0.174,0.894,1.362,0.453,-8.139,5.163,8.412,-64.282,41.606,0.181,-0.264,0.068,-0.107,0.400,1.079,-0.244,-0.014,1.317,2.890,5.258,2.767,5.284,2.767,5.284
11.146,0.438,1.341,1.578,0.453,-8.135,5.162,8.421,-64.445,41.710,0.343,-0.272,0.094,-0.103,0.394,1.081,-0.249,-0.019,1.299,2.890,5.258,2.767,5.284,2.767,5.284
11.171,1.100,0.832,0.782,0.454,-8.130,5.164,8.430,-64.600,41.808,0.456,-0.303,0.088,-0.101,0.391,1.083,-0.265,-0.026,1.293,2.890,5.258,2.767,5.284,2.767,5.284
11.200,-0.184,-1.533,-0.414,0.462,-8.123,5.168,8.448,-64.925,42.014,0.164,-0.343,-0.099,-0.098,0.387,1.084,-0.269,-0.049,1.308,2.890,5.258,2.767,5.284,2.767,5.284
11.229,-3.227,0.089,2.318,0.463,-8.122,5.171,8.458,-65.095,42.123,-1.866,-0.065,-0.731,-0.095,0.380,1.084,-0.255,-0.052,1.314,2.890,5.258,2.767,5.284,2.767,5.284
11.254,-4.443,0.845,3.998,0.441,-8.118,5.196,8.476,-65.420,42.330,-2.062,0.186,-0.524,-0.100,0.377,1.082,-0.155,-0.038,1.346,2.890,5.258,2.767,5.284,2.767,5.284
11.280,-3.111,1.040,2.710,0.421,-8.113,5.216,8.484,-65.574,42.429,-1.304,0.700,-0.087,-0.107,0.374,1.080,-0.115,-0.018,1.352,3.126,5.698,2.875,5.773,2.875,5.773
11.307,-1.806,-0.412,1.152,0.397,-8.109,5.240,8.493,-65.737,42.534,0.305,0.286,0.439,-0.123,0.375,1.077,-0.110,-0.004,1.310,3.126,5.698,2.875,5.773,2.875,5.773
11.331,-0.141,-1.083,0.902,0.372,-8.106,5.264,8.501,-65.907,42.644,0.373,-0.119,0.481,-0.129,0.375,1.077,-0.110,-0.007,1.309,3.126,5.698,2.875,5.773,2.875,5.773
11.356,1.708,-1.415,-0.746,0.336,-8.107,5.305,8.514,-66.223,42.850,0.457,-0.139,0.520,-0.134,0.376,1.078,-0.134,-0.028,1.309,3.126,5.698,2.875,5.773,2.875,5.773
11.380,2.144,-1.206,-2.084,0.325,-8.111,5.320,8.521,-66.393,42.962,0.611,0.084,0.505,-0.137,0.376,1.080,-0.144,-0.029,1.308,3.126,5.698,2.875,5.773,2.875,5.773
11.406,1.492,-0.703,-2.697,0.320,-8.117,5.328,8.528,-66.547,43.063,0.364,0.562,0.020,-0.138,0.379,1.085,-0.170,-0.024,1.325,3.126,5.698,2.875,5.773,2.875,5.773
11.431,0.934,-0.189,-2.594,0.317,-8.123,5.331,8.534,-66.710,43.169,0.116,0.490,-0.211,-0.138,0.381,1.087,-0.176,-0.014,1.338,3.126,5.698,2.875,5.773,2.875,5.773
11.456,0.788,-0.177,-2.411,0.317,-8.135,5.320,8.547,-67.043,43.388,0.064,0.298,-0.277,-0.138,0.384,1.089,-0.189,0.009,1.327,3.126,5.698,2.875,5.773,2.875,5.773
11.479,0.700,-0.211,-2.059,0.320,-8.141,5.308,8.554,-67.214,43.499,0.059,0.197,-0.224,-0.138,0.387,1.089,-0.198,0.017,1.321,3.126,5.698,2.875,5.773,2.875,5.773
11.503,0.908,-0.291,-2.052,0.323,-8.146,5.294,8.560,-67.369,43.600,0.101,0.200,-0.142,-0.137,0.394,1.090,-0.199,0.022,1.328,3.126,5.698,2.875,5.773,2.875,5.773
11.527,1.059,-0.417,-2.056,0.328,-8.151,5.277,8.566,-67.532,43.706,0.145,0.134,-0.122,-0.136,0.398,1.089,-0.211,0.027,1.315,3.126,5.698,2.875,5.773,2.875,5.773
11.551,1.080,-0.407,-1.820,0.335,-8.157,5.258,8.573,-67.695,43.811,0.122,0.021,-0.120,-0.135,0.401,1.089,-0.214,0.030,1.327,3.126,5.698,2.875,5.773,2.875,5.773
11.576,1.071,-0.438,-0.554,0.352,-8.169,5.219,8.586,-68.013,44.016,0.056,-0.246,-0.051,-0.134,0.404,1.088,-0.224,0.023,1.331,3.126,5.698,2.875,5.773,2.875,5.773
11.601,1.246,-0.346,-0.433,0.363,-8.176,5.199,8.594,-68.185,44.125,0.114,-0.299,0.016,-0.133,0.405,1.088,-0.236,0.013,1.336,3.126,5.698,2.875,5.773,2.875,5.773
11.625,1.173,0.084,0.155,0.375,-8.182,5.182,8.601,-68.348,44.229,0.012,-0.231,0.049,-0.130,0.407,1.087,-0.238,0.007,1.319,3.126,5.698,2.875,5.773,2.875,5.773
11.649,0.637,0.539,1.110,0.388,-8.187,5.168,8.609,-68.512,44.332,-0.043,-0.187,0.033,-0.129,0.407,1.087,-0.244,-0.000,1.312,3.126,5.698,2.875,5.773,2.875,5.773
11.675,0.111,1.222,2.139,0.411,-8.190,5.153,8.624,-68.831,44.533,0.043,-0.155,0.022,-0.128,0.407,1.087,-0.246,-0.007,1.288,3.126,5.698,2.875,5.773,2.875,5.773
11.708,0.207,1.432,1.702,0.422,-8.187,5.153,8.633,-69.011,44.647,0.316,0.026,0.023,-0.126,0.406,1.086,-0.249,-0.010,1.264,3.126,5.698,2.875,5.773,2.875,5.773
11.737,0.418,0.637,1.450,0.441,-8.174,5.161,8.650,-69.331,44.848,0.243,0.202,0.076,-0.124,0.405,1.087,-0.266,-0.002,1.258,3.126,5.698,2.875,5.773,2.875,5.773
11.767,-0.114,-1.254,1.140,0.450,-8.168,5.169,8.659,-69.486,44.946,-0.086,0.173,-0.194,-0.119,0.406,1.087,-0.263,-0.006,1.276,3.126,5.698,2.875,5.773,2.875,5.773
11.796,-3.547,0.665,2.876,0.456,-8.160,5.195,8.678,-69.829,45.164,-0.483,-0.332,-0.657,-0.118,0.407,1.086,-0.229,-0.003,1.288,3.358,6.141,3.021,6.251,3.021,6.251
11.829,-3.629,0.471,2.106,0.449,-8.156,5.212,8.686,-69.976,45.257,-0.057,-0.553,-0.540,-0.117,0.405,1.082,-0.220,-0.012,1.262,3.358,6.141,3.021,6.251,3.021,6.251
11.858,-1.788,-0.093,-0.757,0.420,-8.146,5.250,8.704,-70.310,45.472,0.193,-0.275,-0.219,-0.118,0.403,1.078,-0.205,-0.021,1.262,3.358,6.141,3.021,6.251,3.021,6.251
11.888,-1.391,-0.008,-0.702,0.403,-8.143,5.263,8.712,-70.464,45.572,-0.271,0.268,0.101,-0.117,0.399,1.071,-0.195,-0.016,1.263,3.358,6.141,3.021,6.251,3.021,6.251
11.918,-0.513,-0.284,-0.624,0.365,-8.136,5.285,8.727,-70.798,45.788,-0.323,0.325,0.173,-0.118,0.398,1.069,-0.177,-0.005,1.257,3.358,6.141,3.021,6.251,3.021,6.251
11.948,-0.099,-0.509,-1.442,0.349,-8.134,5.291,8.735,-70.961,45.894,-0.035,-0.106,0.033,-0.120,0.397,1.065,-0.173,-0.003,1.250,3.358,6.141,3.021,6.251,3.021,6.251
11.978,-0.088,-0.483,-1.349,0.319,-8.134,5.294,8.748,-71.286,46.105,-0.029,-0.299,-0.056,-0.122,0.396,1.064,-0.168,-0.010,1.253,3.358,6.141,3.021,6.251,3.021,6.251
12.008,0.110,-0.536,-1.488,0.305,-8.136,5.290,8.755,-71.465,46.222,-0.050,-0.159,-0.020,-0.124,0.394,1.061,-0.165,-0.015,1.261,3.358,6.141,3.021,6.251,3.021,6.251
12.038,0.366,-0.390,-1.974,0.285,-8.141,5.276,8.766,-71.774,46.423,-0.009,0.053,0.007,-0.125,0.392,1.060,-0.165,-0.016,1.267,3.358,6.141,3.021,6.251,3.021,6.251
12.068,0.351,0.201,-2.034,0.278,-8.144,5.264,8.772,-71.937,46.528,0.060,0.155,-0.054,-0.127,0.390,1.057,-0.165,-0.013,1.270,3.358,6.141,3.021,6.251,3.021,6.251
12.096,0.677,0.401,-1.712,0.267,-8.148,5.232,8.782,-72.263,46.738,0.121,0.054,-0.018,-0.127,0.390,1.056,-0.175,-0.004,1.267,3.358,6.141,3.021,6.251,3.021,6.251
12.126,1.026,0.416,-1.656,0.265,-8.149,5.214,8.788,-72.426,46.842,0.271,-0.075,0.100,-0.127,0.389,1.055,-0.192,-0.000,1.260,3.358,6.141,3.021,6.251,3.021,6.251
12.157,0.982,0.574,-0.944,0.268,-8.147,5.174,8.798,-72.744,47.045,0.239,-0.021,0.123,-0.126,0.388,1.054,-0.213,-0.001,1.256,3.358,6.141,3.021,6.251,3.021,6.251
12.187,0.145,0.796,0.432,0.272,-8.144,5.154,8.804,-72.915,47.153,-0.167,-0.086,-0.050,-0.124,0.387,1.054,-0.213,-0.001,1.258,3.358,6.141,3.021,6.251,3.021,6.251
12.216,-0.622,0.969,1.622,0.276,-8.135,5.127,8.815,-73.241,47.359,0.040,-0.257,-0.053,-0.124,0.387,1.054,-0.208,-0.006,1.250,3.358,6.141,3.021,6.251,3.021,6.251
12.246,-0.095,0.781,0.686,0.277,-8.128,5.120,8.820,-73.403,47.462,0.305,-0.039,0.125,-0.122,0.384,1.053,-0.216,-0.010,1.235,3.358,6.141,3.021,6.251,3.021,6.251
12.275,0.281,1.320,1.595,0.278,-8.112,5.112,8.831,-73.720,47.661,0.160,0.148,0.220,-0.120,0.383,1.054,-0.229,-0.008,1.227,3.358,6.141,3.021,6.251,3.021,6.251
12.305,0.507,1.074,1.963,0.280,-8.102,5.114,8.837,-73.890,47.768,0.111,-0.112,0.161,-0.117,0.381,1.055,-0.227,-0.008,1.219,3.605,6.576,3.189,6.722,3.189,6.722
12.333,-0.117,-1.481,0.600,0.288,-8.087,5.123,8.848,-74.214,47.973,0.045,-0.280,-0.055,-0.115,0.380,1.056,-0.231,-0.025,1.231,3.605,6.576,3.189,6.722,3.189,6.722
12.363,-2.670,0.410,2.249,0.289,-8.084,5.131,8.854,-74.368,48.071,-0.617,-0.351,-0.509,-0.114,0.379,1.057,-0.202,-0.033,1.260,3.605,6.576,3.189,6.722,3.189,6.722
12.391,-3.648,1.388,3.396,0.283,-8.078,5.144,8.860,-74.537,48.178,-1.293,-0.139,-0.276,-0.118,0.374,1.054,-0.175,-0.038,1.256,3.605,6.576,3.189,6.722,3.189,6.722
12.423,-1.749,0.413,2.054,0.257,-8.064,5.185,8.871,-74.876,48.395,-0.612,0.120,0.189,-0.123,0.372,1.053,-0.123,-0.036,1.256,3.605,6.576,3.189,6.722,3.189,6.722
12.451,-0.401,-0.558,-0.072,0.241,-8.058,5.207,8.876,-75.037,48.499,0.514,-0.138,0.354,-0.132,0.369,1.051,-0.122,-0.037,1.245,3.605,6.576,3.189,6.722,3.189,6.722
12.482,0.337,-0.706,0.081,0.216,-8.051,5.242,8.885,-75.335,48.693,0.214,-0.184,0.259,-0.135,0.367,1.052,-0.133,-0.051,1.244,3.605,6.576,3.189,6.722,3.189,6.722
12.509,0.391,-0.131,-0.165,0.206,-8.049,5.258,8.889,-75.496,48.798,-0.159,0.467,0.111,-0.140,0.364,1.054,-0.128,-0.051,1.258,3.605,6.576,3.189,6.722,3.189,6.722
12.536,0.934,0.059,-2.338,0.191,-8.047,5.279,8.897,-75.826,49.014,0.017,0.711,0.097,-0.142,0.364,1.055,-0.129,-0.026,1.255,3.605,6.576,3.189,6.722,3.189,6.722
12.562,0.939,-0.165,-2.201,0.188,-8.046,5.281,8.901,-75.979,49.114,0.148,0.640,0.106,-0.144,0.366,1.056,-0.140,-0.012,1.259,3.605,6.576,3.189,6.722,3.189,6.722
12.593,0.859,-0.163,-1.660,0.186,-8.045,5.275,8.908,-76.301,49.325,0.110,-0.009,0.000,-0.147,0.371,1.059,-0.142,-0.006,1.254,3.605,6.576,3.189,6.722,3.189,6.722
12.618,1.220,-0.144,-2.054,0.188,-8.045,5.267,8.912,-76.462,49.430,0.159,-0.005,0.020,-0.147,0.373,1.060,-0.153,-0.007,1.250,3.605,6.576,3.189,6.722,3.189,6.722
12.641,1.409,-0.400,-2.500,0.193,-8.046,5.255,8.916,-76.631,49.541,0.253,0.258,0.110,-0.147,0.375,1.061,-0.171,-0.002,1.234,3.605,6.576,3.189,6.722,3.189,6.722
12.666,1.506,-0.659,-2.146,0.200,-8.047,5.240,8.920,-76.784,49.641,0.225,0.320,0.127,-0.146,0.381,1.064,-0.175,0.004,1.241,3.605,6.576,3.189,6.722,3.189,6.722
12.692,1.000,-0.533,-1.196,0.209,-8.050,5.223,8.924,-76.945,49.745,0.057,0.028,-0.020,-0.145,0.384,1.065,-0.186,0.007,1.217,3.605,6.576,3.189,6.722,3.189,6.722
12.718,0.490,-0.360,0.182,0.229,-8.057,5.189,8.933,-77.275,49.959,-0.026,-0.232,-0.165,-0.144,0.387,1.066,-0.186,-0.002,1.215,3.605,6.576,3.189,6.722,3.189,6.722
12.743,0.136,0.278,1.067,0.239,-8.061,5.176,8.938,-77.444,50.068,-0.149,-0.312,-0.232,-0.143,0.389,1.067,-0.183,-0.009,1.228,3.605,6.576,3.189,6.722,3.189,6.722
12.768,-0.339,1.077,1.717,0.246,-8.062,5.168,8.942,-77.589,50.161,-0.194,-0.140,-0.194,-0.143,0.390,1.066,-0.181,-0.012,1.208,3.605,6.576,3.189,6.722,3.189,6.722
12.794,0.089,1.623,1.908,0.254,-8.061,5.164,8.947,-77.767,50.274,-0.053,0.094,-0.001,-0.143,0.390,1.066,-0.176,-0.015,1.220,3.847,7.013,3.364,7.190,3.364,7.190
12.821,0.845,1.203,1.843,0.269,-8.052,5.165,8.958,-78.081,50.476,0.277,0.213,0.326,-0.143,0.391,1.066,-0.187,-0.010,1.219,3.847,7.013,3.364,7.190,3.364,7.190
12.847,0.365,1.676,2.448,0.278,-8.044,5.172,8.963,-78.250,50.584,0.389,0.006,0.270,-0.141,0.392,1.067,-0.200,-0.009,1.198,3.847,7.013,3.364,7.190,3.364,7.190
12.874,0.654,-0.207,0.663,0.296,-8.024,5.192,8.974,-78.555,50.781,0.545,0.112,0.290,-0.139,0.393,1.069,-0.219,-0.015,1.215,3.847,7.013,3.364,7.190,3.364,7.190
12.899,-0.862,-0.242,1.557,0.304,-8.015,5.205,8.980,-78.716,50.885,0.353,0.105,0.149,-0.136,0.394,1.070,-0.224,-0.014,1.219,3.847,7.013,3.364,7.190,3.364,7.190
12.926,-2.229,0.530,1.933,0.308,-8.006,5.220,8.987,-78.884,50.995,-0.167,-0.188,-0.400,-0.131,0.396,1.073,-0.210,-0.012,1.248,3.847,7.013,3.364,7.190,3.364,7.190
12.952,-2.380,0.252,1.243,0.308,-7.997,5.236,8.993,-79.044,51.099,-0.009,-0.142,-0.420,-0.129,0.396,1.073,-0.205,-0.015,1.255,3.847,7.013,3.364,7.190,3.364,7.190
12.979,-2.218,-0.499,-0.450,0.295,-7.984,5.266,9.005,-79.355,51.304,-0.038,-0.059,-0.468,-0.128,0.396,1.072,-0.187,-0.015,1.255,3.847,7.013,3.364,7.190,3.364,7.190
13.009,-2.186,-0.042,-0.707,0.282,-7.980,5.278,9.011,-79.523,51.415,-0.694,0.495,-0.342,-0.126,0.396,1.068,-0.164,-0.003,1.274,3.847,7.013,3.364,7.190,3.364,7.190
13.034,-1.167,0.454,-1.357,0.250,-7.970,5.293,9.021,-79.842,51.626,-0.788,0.779,-0.110,-0.128,0.398,1.065,-0.128,0.033,1.263,3.847,7.013,3.364,7.190,3.364,7.190
13.060,-0.164,0.078,-1.789,0.234,-7.965,5.295,9.026,-80.001,51.732,-0.622,0.790,0.125,-0.131,0.401,1.062,-0.115,0.048,1.258,3.847,7.013,3.364,7.190,3.364,7.190
13.087,0.546,-0.302,-1.898,0.219,-7.961,5.293,9.031,-80.161,51.838,-0.182,0.193,0.272,-0.138,0.410,1.060,-0.112,0.062,1.237,3.847,7.013,3.364,7.190,3.364,7.190
13.113,0.743,-0.197,-1.462,0.198,-7.955,5.279,9.039,-80.479,52.049,-0.105,-0.104,0.177,-0.142,0.415,1.059,-0.111,0.063,1.219,3.847,7.013,3.364,7.190,3.364,7.190
13.140,1.238,-0.299,-1.853,0.191,-7.954,5.269,9.043,-80.638,52.155,0.054,-0.198,0.181,-0.145,0.418,1.059,-0.111,0.058,1.248,3.847,7.013,3.364,7.190,3.364,7.190
13.166,1.665,-0.216,-2.218,0.189,-7.952,5.255,9.047,-80.797,52.260,0.298,-0.082,0.226,-0.150,0.423,1.060,-0.131,0.057,1.256,3.847,7.013,3.364,7.190,3.364,7.190
13.199,1.232,0.105,-1.798,0.192,-7.951,5.221,9.054,-81.115,52.470,0.272,-0.122,0.161,-0.151,0.425,1.061,-0.154,0.055,1.251,3.847,7.013,3.364,7.190,3.364,7.190
13.229,0.701,0.556,-1.165,0.197,-7.950,5.201,9.058,-81.274,52.574,0.071,-0.237,-0.068,-0.152,0.427,1.063,-0.157,0.051,1.247,3.847,7.013,3.364,7.190,3.364,7.190
13.252,0.549,0.789,-0.575,0.209,-7.944,5.163,9.066,-81.584,52.776,0.065,-0.248,-0.071,-0.152,0.427,1.064,-0.165,0.052,1.242,3.847,7.013,3.364,7.190,3.364,7.190
13.277,0.610,0.834,-0.360,0.215,-7.939,5.145,9.070,-81.743,52.879,0.149,-0.248,-0.018,-0.152,0.427,1.065,-0.177,0.046,1.236,3.847,7.013,3.364,7.190,3.364,7.190
13.300,0.348,0.718,0.151,0.222,-7.932,5.127,9.075,-81.910,52.987,0.225,-0.213,0.007,-0.151,0.426,1.065,-0.180,0.041,1.244,4.089,7.451,3.528,7.662,3.528,7.662
13.324,0.245,0.337,0.239,0.229,-7.926,5.113,9.079,-82.068,53.089,0.338,0.004,0.046,-0.149,0.425,1.066,-0.189,0.039,1.262,4.089,7.451,3.528,7.662,3.528,7.662
13.348,0.350,0.270,0.147,0.236,-7.919,5.100,9.084,-82.235,53.196,0.407,0.023,0.061,-0.147,0.424,1.067,-0.195,0.039,1.263,4.089,7.451,3.528,7.662,3.528,7.662
13.374,-0.511,0.129,1.924,0.247,-7.908,5.083,9.094,-82.535,53.390,0.382,-0.105,0.054,-0.144,0.423,1.067,-0.211,0.034,1.259,4.089,7.451,3.528,7.662,3.528,7.662
13.400,-0.773,1.099,2.690,0.251,-7.901,5.082,9.099,-82.693,53.491,0.264,-0.297,-0.012,-0.141,0.422,1.068,-0.213,0.028,1.256,4.089,7.451,3.528,7.662,3.528,7.662
13.431,0.011,0.544,1.443,0.254,-7.893,5.085,9.104,-82.859,53.598,0.319,0.083,-0.004,-0.135,0.418,1.069,-0.217,0.022,1.278,4.089,7.451,3.528,7.662,3.528,7.662
13.461,-1.652,-0.149,1.431,0.257,-7.880,5.094,9.114,-83.167,53.797,-0.225,0.028,-0.203,-0.131,0.417,1.069,-0.217,0.021,1.297,4.089,7.451,3.528,7.662,3.528,7.662
13.489,-3.156,0.580,2.172,0.252,-7.874,5.104,9.119,-83.332,53.904,-0.746,0.042,-0.115,-0.129,0.415,1.068,-0.185,0.025,1.328,4.089,7.451,3.528,7.662,3.528,7.662
13.518,-0.936,-0.664,0.341,0.231,-7.864,5.129,9.129,-83.647,54.108,-0.336,0.268,0.253,-0.130,0.414,1.068,-0.154,0.027,1.349,4.089,7.451,3.528,7.662,3.528,7.662
13.549,-0.237,-0.992,-0.917,0.219,-7.861,5.139,9.133,-83.804,54.211,-0.075,0.276,0.302,-0.132,0.415,1.069,-0.155,0.033,1.334,4.089,7.451,3.528,7.662,3.528,7.662
13.579,-0.479,-0.555,0.924,0.197,-7.862,5.156,9.141,-84.111,54.412,-0.379,0.055,0.219,-0.134,0.415,1.070,-0.140,0.033,1.360,4.089,7.451,3.528,7.662,3.528,7.662
13.610,-0.181,-0.826,0.514,0.186,-7.865,5.165,9.145,-84.276,54.520,-0.272,-0.489,0.027,-0.138,0.416,1.073,-0.125,0.021,1.387,4.089,7.451,3.528,7.662,3.528,7.662
13.639,0.929,-0.361,-1.547,0.169,-7.872,5.179,9.153,-84.591,54.727,-0.086,-0.270,-0.015,-0.141,0.415,1.075,-0.126,0.005,1.392,4.089,7.451,3.528,7.662,3.528,7.662
13.669,1.037,-0.091,-1.950,0.165,-7.877,5.181,9.156,-84.748,54.831,-0.194,0.301,-0.006,-0.146,0.413,1.077,-0.125,0.007,1.394,4.089,7.451,3.528,7.662,3.528,7.662
13.699,1.376,-0.019,-1.302,0.163,-7.884,5.174,9.162,-85.063,55.038,-0.195,0.318,0.034,-0.149,0.413,1.078,-0.128,0.021,1.389,4.089,7.451,3.528,7.662,3.528,7.662
13.728,1.702,-0.395,-1.223,0.167,-7.887,5.167,9.166,-85.221,55.141,0.094,-0.027,0.007,-0.154,0.414,1.080,-0.141,0.021,1.378,4.089,7.451,3.528,7.662,3.528,7.662
13.758,1.281,-0.284,-0.829,0.183,-7.895,5.148,9.173,-85.537,55.348,0.108,-0.121,-0.122,-0.156,0.415,1.080,-0.155,0.015,1.364,4.089,7.451,3.528,7.662,3.528,7.662
13.788,0.872,0.133,-0.409,0.194,-7.899,5.137,9.177,-85.710,55.461,0.012,-0.121,-0.213,-0.158,0.415,1.081,-0.155,0.013,1.341,4.089,7.451,3.528,7.662,3.528,7.662
13.821,0.144,0.366,0.283,0.214,-7.904,5.120,9.184,-86.003,55.650,-0.068,-0.021,-0.236,-0.161,0.415,1.081,-0.158,0.012,1.333,4.325,7.892,3.642,8.149,3.642,8.149
13.851,-0.178,0.594,0.779,0.225,-7.906,5.112,9.189,-86.177,55.763,-0.116,-0.120,-0.161,-0.164,0.414,1.078,-0.156,0.013,1.333,4.325,7.892,3.642,8.149,3.642,8.149
13.881,0.109,1.091,1.154,0.240,-7.903,5.106,9.198,-86.477,55.957,0.004,-0.250,-0.050,-0.166,0.414,1.077,-0.159,0.009,1.354,4.325,7.892,3.642,8.149,3.642,8.149
13.910,0.884,0.674,0.773,0.248,-7.899,5.107,9.203,-86.643,56.064,0.446,-0.260,0.257,-0.168,0.411,1.075,-0.164,0.001,1.367,4.325,7.892,3.642,8.149,3.642,8.149
13.939,0.602,0.741,1.699,0.266,-7.889,5.114,9.213,-86.959,56.269,0.465,-0.104,0.331,-0.167,0.409,1.075,-0.192,-0.011,1.346,4.325,7.892,3.642,8.149,3.642,8.149
13.969,-0.014,1.057,2.092,0.275,-7.882,5.123,9.219,-87.117,56.371,0.263,-0.011,0.153,-0.164,0.406,1.076,-0.202,-0.013,1.388,4.325,7.892,3.642,8.149,3.642,8.149
14.001,-0.715,1.026,1.355,0.289,-7.864,5.146,9.230,-87.424,56.571,0.183,0.138,0.099,-0.162,0.404,1.077,-0.209,-0.008,1.386,4.325,7.892,3.642,8.149,3.642,8.149
14.029,-0.991,-0.020,2.375,0.292,-7.853,5.163,9.236,-87.589,56.680,-0.468,0.667,0.076,-0.158,0.404,1.080,-0.210,0.003,1.413,4.325,7.892,3.642,8.149,3.642,8.149
14.058,-2.407,0.645,2.004,0.289,-7.834,5.205,9.248,-87.902,56.887,-0.238,0.249,-0.180,-0.158,0.406,1.081,-0.185,0.019,1.430,4.325,7.892,3.642,8.149,3.642,8.149
14.087,-1.276,0.250,-0.976,0.282,-7.825,5.227,9.253,-88.059,56.991,0.374,0.183,0.027,-0.157,0.410,1.082,-0.181,0.029,1.435,4.325,7.892,3.642,8.149,3.642,8.149
14.117,-0.644,-0.606,-1.025,0.264,-7.810,5.258,9.264,-88.372,57.201,0.111,0.100,0.028,-0.155,0.412,1.082,-0.183,0.035,1.415,4.325,7.892,3.642,8.149,3.642,8.149
14.146,-0.896,-0.865,-0.650,0.254,-7.805,5.268,9.269,-88.528,57.306,-0.382,-0.230,-0.164,-0.153,0.415,1.083,-0.180,0.034,1.442,4.325,7.892,3.642,8.149,3.642,8.149
14.175,-0.857,-0.226,-0.712,0.232,-7.801,5.283,9.279,-88.832,57.512,-0.445,-0.265,-0.215,-0.154,0.416,1.083,-0.153,0.025,1.472,4.325,7.892,3.642,8.149,3.642,8.149
14.205,-0.071,-0.509,-1.446,0.220,-7.801,5.287,9.284,-89.004,57.628,-0.178,0.061,0.009,-0.156,0.417,1.081,-0.143,0.024,1.476,4.325,7.892,3.642,8.149,3.642,8.149
14.233,0.858,-1.122,-1.947,0.203,-7.804,5.282,9.292,-89.308,57.834,-0.128,0.171,0.059,-0.158,0.417,1.081,-0.141,0.025,1.469,4.325,7.892,3.642,8.149,3.642,8.149
14.261,0.790,-0.681,-1.600,0.198,-7.809,5.275,9.296,-89.464,57.940,-0.198,0.252,-0.026,-0.160,0.418,1.080,-0.138,0.030,1.441,4.325,7.892,3.642,8.149,3.642,8.149
14.291,0.827,-0.344,-1.804,0.196,-7.814,5.265,9.300,-89.613,58.040,0.060,0.219,-0.180,-0.164,0.421,1.079,-0.140,0.037,1.427,4.561,8.333,3.713,8.644,3.713,8.644
14.323,1.282,-0.378,-2.991,0.196,-7.825,5.236,9.308,-89.933,58.255,0.265,0.116,-0.175,-0.165,0.423,1.078,-0.159,0.050,1.402,4.561,8.333,3.713,8.644,3.713,8.644
14.350,0.951,-0.169,-2.354,0.200,-7.830,5.214,9.312,-90.090,58.360,0.062,-0.098,-0.241,-0.167,0.426,1.075,-0.164,0.050,1.417,4.561,8.333,3.713,8.644,3.713,8.644
14.379,0.017,1.110,-1.074,0.210,-7.838,5.168,9.320,-90.403,58.568,-0.035,-0.193,-0.271,-0.167,0.427,1.073,-0.170,0.053,1.411,4.561,8.333,3.713,8.644,3.713,8.644
14.409,0.175,1.107,-0.702,0.214,-7.838,5.147,9.324,-90.552,58.666,0.065,-0.287,-0.065,-0.168,0.427,1.069,-0.177,0.056,1.407,4.561,8.333,3.713,8.644,3.713,8.644
14.439,-0.243,0.714,1.327,0.222,-7.834,5.107,9.333,-90.873,58.876,0.024,-0.312,0.037,-0.168,0.427,1.067,-0.180,0.044,1.400,4.561,8.333,3.713,8.644,3.713,8.644
14.468,-0.582,0.889,2.221,0.225,-7.829,5.095,9.337,-91.030,58.978,0.079,-0.643,0.038,-0.168,0.423,1.063,-0.180,0.035,1.413,4.561,8.333,3.713,8.644,3.713,8.644
14.497,0.272,0.665,1.792,0.227,-7.818,5.086,9.347,-91.343,59.181,0.298,-0.822,0.072,-0.167,0.420,1.062,-0.187,0.001,1.418,4.561,8.333,3.713,8.644,3.713,8.644
14.526,0.452,1.588,0.989,0.229,-7.810,5.087,9.351,-91.507,59.288,0.782,-0.341,0.238,-0.164,0.410,1.061,-0.208,-0.009,1.410,4.561,8.333,3.713,8.644,3.713,8.644
14.555,0.129,1.067,0.282,0.234,-7.788,5.093,9.360,-91.811,59.487,0.688,-0.042,0.248,-0.160,0.405,1.061,-0.242,-0.016,1.407,4.561,8.333,3.713,8.644,3.713,8.644
14.583,-1.856,0.390,1.127,0.235,-7.776,5.097,9.365,-91.959,59.584,0.428,0.181,0.225,-0.156,0.400,1.061,-0.250,-0.014,1.390,4.561,8.333,3.713,8.644,3.713,8.644
14.612,-3.816,1.719,3.055,0.230,-7.762,5.105,9.370,-92.122,59.691,-0.893,-0.318,-0.216,-0.148,0.393,1.063,-0.230,-0.003,1.423,4.561,8.333,3.713,8.644,3.713,8.644
14.641,-4.290,1.224,2.308,0.199,-7.731,5.135,9.378,-92.432,59.895,-1.184,-0.634,-0.247,-0.147,0.389,1.063,-0.169,-0.012,1.470,4.561,8.333,3.713,8.644,3.713,8.644
14.668,-2.438,0.330,0.975,0.173,-7.716,5.155,9.382,-92.587,59.998,0.898,0.056,0.871,-0.147,0.381,1.065,-0.175,-0.013,1.456,4.561,8.333,3.713,8.644,3.713,8.644
14.695,0.989,-2.066,-1.130,0.125,-7.693,5.186,9.388,-92.887,60.200,0.872,-0.021,0.888,-0.145,0.377,1.068,-0.198,-0.024,1.441,4.561,8.333,3.713,8.644,3.713,8.644
14.723,0.870,-1.781,-1.108,0.105,-7.689,5.197,9.390,-93.048,60.309,0.439,-0.033,0.666,-0.141,0.374,1.073,-0.206,-0.040,1.484,4.561,8.333,3.713,8.644,3.713,8.644
14.748,0.604,-0.861,-1.459,0.090,-7.688,5.203,9.392,-93.202,60.413,-0.206,0.503,0.130,-0.134,0.369,1.083,-0.205,-0.039,1.496,4.561,8.333,3.713,8.644,3.713,8.644
14.775,0.535,-0.478,-2.311,0.067,-7.690,5.204,9.395,-93.502,60.616,-0.171,0.812,0.153,-0.132,0.369,1.087,-0.201,-0.014,1.498,4.561,8.333,3.713,8.644,3.713,8.644
14.801,0.609,-0.205,-2.113,0.057,-7.692,5.197,9.397,-93.679,60.736,-0.133,0.811,0.154,-0.129,0.371,1.094,-0.205,0.004,1.510,4.793,8.776,3.750,9.143,3.750,9.143
14.828,0.715,-0.494,-2.013,0.052,-7.694,5.189,9.398,-93.810,60.824,0.048,0.282,0.109,-0.127,0.376,1.101,-0.204,0.015,1.501,4.793,8.776,3.750,9.143,3.750,9.143
14.857,1.204,-0.304,-1.960,0.046,-7.701,5.160,9.400,-94.125,61.036,0.167,-0.045,0.101,-0.126,0.379,1.105,-0.216,0.018,1.490,4.793,8.776,3.750,9.143,3.750,9.143
14.883,1.239,-0.592,-2.208,0.047,-7.705,5.143,9.400,-94.272,61.134,0.192,-0.332,0.083,-0.122,0.383,1.112,-0.234,0.010,1.488,4.793,8.776,3.750,9.143,3.750,9.143
14.909,1.342,-0.376,-1.832,0.050,-7.710,5.123,9.401,-94.426,61.237,-0.082,-0.178,0.060,-0.121,0.384,1.115,-0.237,0.002,1.503,4.793,8.776,3.750,9.143,3.750,9.143
14.936,0.091,-0.199,1.083,0.061,-7.720,5.083,9.404,-94.742,61.446,-0.430,-0.211,-0.040,-0.120,0.384,1.118,-0.230,-0.010,1.516,4.793,8.776,3.750,9.143,3.750,9.143
14.963,0.086,-0.054,1.356,0.066,-7.725,5.071,9.405,-94.889,61.542,-0.465,-0.305,-0.136,-0.119,0.384,1.121,-0.220,-0.020,1.526,4.793,8.776,3.750,9.143,3.750,9.143
14.991,0.166,0.091,1.430,0.071,-7.730,5.061,9.406,-95.051,61.649,-0.110,-0.151,-0.059,-0.121,0.382,1.125,-0.215,-0.025,1.525,4.793,8.776,3.750,9.143,3.750,9.143
15.018,0.760,0.392,1.299,0.081,-7.736,5.053,9.409,-95.353,61.846,0.010,0.083,0.051,-0.122,0.381,1.126,-0.215,-0.030,1.513,4.793,8.776,3.750,9.143,3.750,9.143
15.043,0.890,0.416,1.424,0.088,-7.738,5.054,9.411,-95.515,61.952,0.122,0.288,0.158,-0.123,0.381,1.128,-0.224,-0.028,1.513,4.793,8.776,3.750,9.143,3.750,9.143
15.069,0.648,0.660,1.501,0.095,-7.738,5.057,9.413,-95.670,62.053,0.362,0.199,0.159,-0.123,0.381,1.131,-0.228,-0.023,1.508,4.793,8.776,3.750,9.143,3.750,9.143
15.094,-0.063,0.107,0.971,0.109,-7.734,5.072,9.417,-95.980,62.256,0.418,-0.039,0.024,-0.122,0.382,1.134,-0.245,-0.020,1.502,4.793,8.776,3.750,9.143,3.750,9.143
15.120,-0.684,-0.886,0.837,0.115,-7.733,5.082,9.419,-96.134,62.357,0.461,-0.222,-0.020,-0.120,0.383,1.135,-0.245,-0.030,1.527,4.793,8.776,3.750,9.143,3.750,9.143
15.146,-2.028,-0.443,2.053,0.117,-7.733,5.093,9.422,-96.289,62.459,-0.100,-0.409,-0.319,-0.115,0.382,1.138,-0.251,-0.036,1.517,4.793,8.776,3.750,9.143,3.750,9.143
15.171,-2.817,0.113,2.150,0.113,-7.734,5.108,9.424,-96.451,62.566,-0.393,-0.579,-0.561,-0.113,0.380,1.138,-0.229,-0.040,1.527,4.793,8.776,3.750,9.143,3.750,9.143
15.197,-2.267,-0.179,0.124,0.095,-7.734,5.139,9.428,-96.745,62.761,-0.353,-0.490,-0.562,-0.112,0.377,1.136,-0.197,-0.052,1.543,4.793,8.776,3.750,9.143,3.750,9.143
15.227,-2.065,-0.097,-0.723,0.078,-7.734,5.154,9.430,-96.908,62.869,-0.470,0.206,-0.323,-0.113,0.372,1.132,-0.191,-0.053,1.507,4.793,8.776,3.750,9.143,3.750,9.143
15.256,-1.839,0.595,-0.563,0.041,-7.734,5.174,9.432,-97.209,63.070,-0.799,0.478,-0.276,-0.115,0.370,1.129,-0.151,-0.030,1.509,4.793,8.776,3.750,9.143,3.750,9.143
15.283,-1.206,0.502,-0.910,0.019,-7.732,5.181,9.433,-97.372,63.179,-0.476,0.451,0.033,-0.122,0.371,1.123,-0.128,-0.009,1.492,4.793,8.776,3.750,9.143,3.750,9.143
15.312,-0.421,0.002,-1.458,-0.002,-7.729,5.185,9.433,-97.526,63.283,-0.283,0.211,0.053,-0.126,0.372,1.121,-0.118,-0.000,1.475,4.793,8.776,3.750,9.143,3.750,9.143
15.343,0.331,-0.280,-1.365,-0.039,-7.727,5.184,9.432,-97.835,63.490,-0.239,-0.007,0.012,-0.131,0.374,1.119,-0.105,0.006,1.456,4.793,8.776,3.750,9.143,3.750,9.143
15.370,0.506,-0.275,-1.452,-0.053,-7.726,5.179,9.431,-97.990,63.594,-0.039,-0.067,-0.002,-0.140,0.376,1.115,-0.105,0.004,1.470,4.793,8.776,3.750,9.143,3.750,9.143
15.399,0.889,0.131,-2.246,-0.073,-7.726,5.160,9.429,-98.291,63.795,0.077,0.016,-0.002,-0.144,0.376,1.114,-0.114,0.008,1.446,4.793,8.776,3.750,9.143,3.750,9.143
15.429,0.686,0.355,-1.870,-0.079,-7.726,5.145,9.427,-98.446,63.898,0.067,-0.065,-0.053,-0.150,0.378,1.111,-0.114,0.008,1.451,4.793,8.776,3.750,9.143,3.750,9.143
15.457,0.198,0.822,-1.390,-0.088,-7.722,5.111,9.424,-98.762,64.109,0.117,-0.239,-0.101,-0.152,0.378,1.110,-0.122,0.008,1.439,4.793,8.776,3.750,9.143,3.750,9.143
15.486,0.368,0.806,-2.016,-0.091,-7.718,5.092,9.422,-98.917,64.211,0.283,-0.248,0.031,-0.155,0.377,1.107,-0.134,0.013,1.412,4.793,8.776,3.750,9.143,3.750,9.143
15.515,0.809,0.141,-1.242,-0.092,-7.708,5.048,9.418,-99.225,64.413,0.148,-0.178,0.170,-0.156,0.376,1.106,-0.151,0.005,1.397,4.793,8.776,3.750,9.143,3.750,9.143
15.545,0.229,0.112,0.399,-0.091,-7.702,5.027,9.416,-99.379,64.514,-0.166,-0.281,0.100,-0.157,0.373,1.106,-0.150,0.001,1.398,4.793,8.776,3.750,9.143,3.750,9.143
15.573,-0.809,0.441,1.987,-0.090,-7.692,4.998,9.413,-99.687,64.715,0.004,-0.547,-0.066,-0.157,0.370,1.106,-0.144,-0.006,1.409,4.793,8.776,3.750,9.143,3.750,9.143
15.603,-0.746,0.265,2.062,-0.093,-7.686,4.992,9.411,-99.841,64.815,0.307,-0.739,-0.134,-0.158,0.367,1.105,-0.147,-0.032,1.416,4.793,8.776,3.750,9.143,3.750,9.143
15.632,-0.704,0.048,2.827,-0.096,-7.681,4.991,9.409,-99.987,64.909,0.398,-0.424,-0.024,-0.156,0.358,1.105,-0.154,-0.046,1.407,4.793,8.776,3.750,9.143,3.750,9.143
15.662,-0.145,-0.321,1.105,-0.105,-7.671,5.002,9.405,-100.302,65.114,0.348,-0.136,-0.020,-0.154,0.352,1.104,-0.163,-0.060,1.407,4.793,8.776,3.750,9.143,3.750,9.143
15.690,-0.253,-0.602,0.178,-0.109,-7.668,5.010,9.403,-100.455,65.214,0.299,-0.044,-0.136,-0.149,0.343,1.103,-0.168,-0.063,1.403,4.793,8.776,3.750,9.143,3.750,9.143
15.720,-1.590,-0.353,1.275,-0.122,-7.665,5.027,9.398,-100.762,65.415,-0.198,-0.203,-0.296,-0.146,0.339,1.102,-0.155,-0.067,1.403,4.793,8.776,3.750,9.143,3.750,9.143
15.749,-1.483,-0.219,0.334,-0.131,-7.665,5.038,9.396,-100.915,65.516,-0.627,0.004,-0.215,-0.143,0.331,1.099,-0.141,-0.071,1.374,4.793,8.776,3.750,9.143,3.750,9.143
15.780,-0.539,-0.967,-0.799,-0.154,-7.668,5.053,9.390,-101.222,65.718,-0.462,0.116,-0.066,-0.144,0.328,1.097,-0.109,-0.067,1.357,4.793,8.776,3.750,9.143,3.750,9.143
15.807,-0.828,-0.837,0.255,-0.166,-7.672,5.058,9.387,-101.375,65.819,-0.672,-0.175,-0.065,-0.148,0.322,1.093,-0.089,-0.070,1.323,5.021,9.220,3.856,9.631,3.856,9.631
15.837,-0.448,-0.218,1.117,-0.191,-7.682,5.072,9.380,-101.682,66.021,-0.740,-0.338,-0.116,-0.152,0.319,1.091,-0.058,-0.082,1.318,5.021,9.220,3.856,9.631,3.856,9.631
15.866,0.236,0.315,-0.194,-0.202,-7.687,5.080,9.376,-101.836,66.123,-0.204,-0.120,-0.068,-0.162,0.312,1.088,-0.047,-0.089,1.297,5.021,9.220,3.856,9.631,3.856,9.631
15.896,1.086,0.816,-1.677,-0.219,-7.691,5.089,9.367,-102.144,66.326,-0.039,0.425,0.064,-0.166,0.309,1.086,-0.050,-0.078,1.276,5.021,9.220,3.856,9.631,3.856,9.631
15.925,1.420,0.610,-2.081,-0.223,-7.691,5.087,9.363,-102.297,66.428,0.148,0.523,0.195,-0.174,0.307,1.084,-0.066,-0.063,1.262,5.021,9.220,3.856,9.631,3.856,9.631
15.954,2.194,0.050,-2.207,-0.217,-7.689,5.072,9.354,-102.605,66.631,0.208,0.353,0.149,-0.177,0.308,1.084,-0.094,-0.051,1.250,5.021,9.220,3.856,9.631,3.856,9.631
15.983,1.949,-0.139,-1.960,-0.208,-7.687,5.059,9.350,-102.766,66.737,0.021,-0.029,-0.173,-0.181,0.310,1.084,-0.098,-0.048,1.263,5.021,9.220,3.856,9.631,3.856,9.631
16.014,0.626,-0.491,-0.226,-0.187,-7.687,5.030,9.342,-103.059,66.929,-0.182,-0.140,-0.332,-0.183,0.311,1.083,-0.105,-0.058,1.248,5.021,9.220,3.856,9.631,3.856,9.631
16.043,0.095,-0.372,0.164,-0.175,-7.689,5.016,9.338,-103.220,67.035,-0.353,-0.283,-0.491,-0.186,0.311,1.081,-0.098,-0.066,1.222,5.021,9.220,3.856,9.631,3.856,9.631
16.070,0.084,-0.042,0.138,-0.164,-7.690,5.004,9.335,-103.374,67.135,-0.386,-0.403,-0.323,-0.191,0.309,1.076,-0.091,-0.074,1.213,5.021,9.220,3.856,9.631,3.856,9.631
16.101,-0.321,0.519,2.503,-0.147,-7.692,4.990,9.329,-103.681,67.335,-0.440,-0.391,-0.184,-0.195,0.307,1.073,-0.075,-0.089,1.198,5.021,9.220,3.856,9.631,3.856,9.631
16.131,0.074,0.231,2.395,-0.140,-7.692,4.991,9.326,-103.843,67.440,0.275,-0.429,-0.024,-0.202,0.302,1.067,-0.074,-0.101,1.157,5.021,9.220,3.856,9.631,3.856,9.631
16.161,0.901,0.195,0.957,-0.126,-7.690,5.001,9.321,-104.135,67.629,0.608,-0.395,-0.045,-0.205,0.298,1.064,-0.100,-0.121,1.146,5.021,9.220,3.856,9.631,3.856,9.631
16.190,0.295,0.620,1.407,-0.117,-7.689,5.010,9.318,-104.297,67.734,0.281,-0.122,-0.238,-0.206,0.290,1.058,-0.111,-0.127,1.131,5.021,9.220,3.856,9.631,3.856,9.631
16.219,-0.194,-0.045,1.426,-0.103,-7.682,5.034,9.314,-104.604,67.935,0.126,0.095,-0.203,-0.205,0.286,1.055,-0.123,-0.124,1.120,5.021,9.220,3.856,9.631,3.856,9.631
16.250,-1.530,-0.634,2.175,-0.099,-7.680,5.050,9.312,-104.758,68.036,-0.144,0.206,-0.277,-0.204,0.281,1.049,-0.114,-0.119,1.105,5.021,9.220,3.856,9.631,3.856,9.631
16.279,-2.491,0.866,1.342,-0.104,-7.675,5.090,9.308,-105.065,68.239,-0.282,0.011,-0.465,-0.204,0.279,1.046,-0.095,-0.100,1.098,5.021,9.220,3.856,9.631,3.856,9.631
16.308,-1.515,0.549,-0.458,-0.114,-7.671,5.111,9.305,-105.226,68.346,0.303,0.274,-0.121,-0.205,0.277,1.038,-0.095,-0.098,1.096,5.272,9.653,4.083,10.077,4.083,10.077
16.338,-1.149,-0.032,-0.680,-0.136,-7.662,5.140,9.301,-105.525,68.546,0.246,0.448,0.009,-0.204,0.276,1.034,-0.100,-0.073,1.088,5.272,9.653,4.083,10.077,4.083,10.077
16.369,-1.343,-0.201,0.057,-0.148,-7.658,5.150,9.298,-105.670,68.644,-0.398,0.249,0.010,-0.203,0.278,1.027,-0.086,-0.061,1.090,5.272,9.653,4.083,10.077,4.083,10.077
16.400,-1.068,-0.169,0.363,-0.178,-7.652,5.171,9.291,-105.977,68.850,-0.476,0.095,-0.001,-0.204,0.280,1.024,-0.051,-0.055,1.097,5.272,9.653,4.083,10.077,4.083,10.077
16.428,-0.590,0.185,-0.054,-0.194,-7.649,5.181,9.287,-106.137,68.959,-0.296,0.226,0.056,-0.208,0.283,1.020,-0.036,-0.057,1.079,5.272,9.653,4.083,10.077,4.083,10.077
16.458,0.720,0.607,-1.807,-0.221,-7.643,5.193,9.279,-106.436,69.161,-0.079,0.442,0.122,-0.210,0.285,1.018,-0.024,-0.041,1.075,5.272,9.653,4.083,10.077,4.083,10.077
16.488,1.056,0.720,-1.958,-0.231,-7.639,5.192,9.275,-106.596,69.270,0.166,0.365,0.258,-0.214,0.291,1.016,-0.037,-0.026,1.065,5.272,9.653,4.083,10.077,4.083,10.077
16.518,1.713,0.457,-2.500,-0.240,-7.627,5.181,9.265,-106.901,69.478,0.429,0.097,0.401,-0.215,0.295,1.016,-0.059,-0.018,1.052,5.272,9.653,4.083,10.077,4.083,10.077
16.547,1.734,0.280,-2.519,-0.238,-7.621,5.168,9.260,-107.054,69.581,0.247,0.098,0.308,-0.214,0.301,1.018,-0.063,-0.018,1.071,5.272,9.653,4.083,10.077,4.083,10.077
16.576,1.049,0.242,-0.931,-0.228,-7.608,5.138,9.251,-107.358,69.787,0.209,-0.132,0.203,-0.213,0.304,1.020,-0.078,-0.021,1.060,5.272,9.653,4.083,10.077,4.083,10.077
16.606,0.961,0.129,-1.069,-0.221,-7.603,5.123,9.247,-107.503,69.885,0.357,-0.467,0.028,-0.209,0.308,1.024,-0.092,-0.030,1.070,5.272,9.653,4.083,10.077,4.083,10.077
16.637,-0.137,0.508,0.019,-0.205,-7.591,5.090,9.238,-107.814,70.094,0.149,-0.305,-0.072,-0.207,0.308,1.025,-0.101,-0.044,1.072,5.272,9.653,4.083,10.077,4.083,10.077
16.663,-0.710,0.843,0.475,-0.199,-7.585,5.077,9.234,-107.966,70.196,-0.279,0.039,-0.123,-0.203,0.307,1.027,-0.096,-0.046,1.082,5.272,9.653,4.083,10.077,4.083,10.077
16.690,-0.855,0.901,0.921,-0.195,-7.577,5.066,9.230,-108.118,70.297,-0.242,0.138,0.032,-0.203,0.307,1.028,-0.090,-0.040,1.077,5.272,9.653,4.083,10.077,4.083,10.077
16.717,-0.176,0.734,1.555,-0.191,-7.559,5.054,9.222,-108.420,70.500,-0.060,0.198,0.172,-0.202,0.307,1.029,-0.085,-0.033,1.081,5.272,9.653,4.083,10.077,4.083,10.077
16.741,0.158,0.905,1.579,-0.190,-7.549,5.054,9.218,-108.572,70.601,0.106,0.101,0.203,-0.202,0.308,1.030,-0.084,-0.033,1.084,5.272,9.653,4.083,10.077,4.083,10.077
16.768,0.731,0.697,0.792,-0.188,-7.539,5.057,9.215,-108.715,70.697,0.319,0.238,0.243,-0.200,0.310,1.033,-0.097,-0.031,1.068,5.272,9.653,4.083,10.077,4.083,10.077
16.793,1.379,-0.923,-0.769,-0.178,-7.519,5.060,9.207,-109.024,70.904,0.242,0.363,0.202,-0.197,0.312,1.036,-0.111,-0.031,1.069,5.528,10.082,4.325,10.514,4.325,10.514
16.823,0.162,-1.647,0.305,-0.171,-7.514,5.061,9.204,-109.166,71.000,-0.261,0.110,-0.044,-0.196,0.313,1.037,-0.104,-0.030,1.079,5.528,10.082,4.325,10.514,4.325,10.514
16.848,-1.283,-0.405,0.418,-0.165,-7.511,5.062,9.201,-109.324,71.107,-1.444,-0.127,-0.528,-0.198,0.315,1.039,-0.073,-0.032,1.094,5.528,10.082,4.325,10.514,4.325,10.514
16.875,-2.261,-0.147,1.256,-0.168,-7.507,5.069,9.194,-109.617,71.304,-1.367,-0.048,-0.336,-0.203,0.316,1.038,-0.004,-0.033,1.125,5.528,10.082,4.325,10.514,4.325,10.514
16.902,-1.369,-0.946,0.761,-0.175,-7.507,5.075,9.190,-109.775,71.411,-0.888,-0.082,-0.158,-0.210,0.317,1.037,0.015,-0.035,1.120,5.528,10.082,4.325,10.514,4.325,10.514
16.928,-0.623,-1.016,0.407,-0.184,-7.508,5.082,9.187,-109.932,71.517,-0.165,-0.577,-0.093,-0.224,0.316,1.035,0.031,-0.047,1.090,5.528,10.082,4.325,10.514,4.325,10.514
16.956,0.359,-0.398,-0.446,-0.200,-7.515,5.094,9.179,-110.218,71.711,-0.242,-0.467,-0.067,-0.231,0.315,1.033,0.040,-0.071,1.087,5.528,10.082,4.325,10.514,4.325,10.514
16.982,0.784,-0.109,-1.117,-0.205,-7.519,5.097,9.175,-110.368,71.813,-0.308,-0.095,0.054,-0.238,0.312,1.032,0.046,-0.073,1.081,5.528,10.082,4.325,10.514,4.325,10.514
17.008,1.011,0.460,-1.144,-0.209,-7.523,5.098,9.171,-110.519,71.914,-0.386,0.496,0.158,-0.251,0.310,1.031,0.045,-0.065,1.081,5.528,10.082,4.325,10.514,4.325,10.514
17.035,0.944,1.019,-1.469,-0.208,-7.525,5.093,9.163,-110.827,72.123,-0.357,0.261,0.067,-0.258,0.310,1.031,0.050,-0.041,1.075,5.528,10.082,4.325,10.514,4.325,10.514
17.061,1.143,1.194,-2.362,-0.205,-7.523,5.086,9.159,-110.970,72.220,-0.172,0.028,-0.151,-0.264,0.310,1.031,0.054,-0.041,1.070,5.528,10.082,4.325,10.514,4.325,10.514
17.088,1.371,0.890,-2.348,-0.200,-7.519,5.075,9.155,-111.120,72.322,0.054,0.199,0.002,-0.276,0.311,1.029,0.042,-0.032,1.043,5.528,10.082,4.325,10.514,4.325,10.514
17.115,1.490,0.288,-0.782,-0.182,-7.508,5.046,9.147,-111.428,72.529,-0.029,-0.032,0.374,-0.281,0.312,1.029,0.034,-0.032,1.052,5.528,10.082,4.325,10.514,4.325,10.514
17.141,1.294,0.072,-0.145,-0.171,-7.502,5.032,9.143,-111.579,72.630,-0.068,-0.140,0.356,-0.285,0.313,1.030,0.039,-0.036,1.052,5.528,10.082,4.325,10.514,4.325,10.514
17.168,0.990,-0.020,0.352,-0.158,-7.497,5.019,9.140,-111.729,72.731,0.005,-0.281,0.021,-0.293,0.313,1.032,0.033,-0.043,1.078,5.528,10.082,4.325,10.514,4.325,10.514
17.195,0.566,-0.182,1.384,-0.132,-7.488,5.003,9.134,-112.021,72.926,0.156,-0.555,-0.090,-0.296,0.311,1.033,0.026,-0.065,1.080,5.528,10.082,4.325,10.514,4.325,10.514
17.223,0.383,0.492,1.218,-0.120,-7.485,5.001,9.132,-112.170,73.026,0.282,-0.641,-0.216,-0.299,0.309,1.033,0.023,-0.079,1.076,5.528,10.082,4.325,10.514,4.325,10.514
17.248,0.140,0.541,1.058,-0.107,-7.480,5.000,9.129,-112.328,73.131,0.254,0.173,0.177,-0.302,0.303,1.033,0.011,-0.086,1.075,5.528,10.082,4.325,10.514,4.325,10.514
17.277,-0.126,0.324,1.012,-0.088,-7.469,5.006,9.126,-112.619,73.326,0.250,0.734,0.547,-0.302,0.302,1.034,-0.001,-0.067,1.070,5.528,10.082,4.325,10.514,4.325,10.514
17.306,-0.027,0.983,0.439,-0.079,-7.462,5.010,9.124,-112.768,73.426,0.412,0.718,0.426,-0.301,0.303,1.039,-0.006,-0.049,1.107,5.783,10.512,4.566,10.953,4.566,10.953
17.332,0.292,0.221,-0.479,-0.071,-7.454,5.015,9.122,-112.925,73.531,0.395,0.527,0.231,-0.300,0.306,1.042,-0.016,-0.034,1.120,5.783,10.512,4.566,10.953,4.566,10.953
17.359,-1.843,0.154,0.274,-0.060,-7.441,5.020,9.120,-113.215,73.727,-0.051,0.178,-0.083,-0.298,0.309,1.045,-0.012,-0.013,1.131,5.783,10.512,4.566,10.953,4.566,10.953
17.386,-2.966,0.091,1.413,-0.061,-7.434,5.024,9.119,-113.372,73.833,-0.844,-0.293,-0.205,-0.297,0.314,1.049,0.000,-0.017,1.159,5.783,10.512,4.566,10.953,4.566,10.953
17.412,-2.879,0.237,1.554,-0.068,-7.428,5.030,9.117,-113.520,73.933,-0.665,-0.165,-0.059,-0.299,0.315,1.050,0.028,-0.016,1.151,5.783,10.512,4.566,10.953,4.566,10.953
17.438,-1.702,0.074,0.805,-0.093,-7.417,5.048,9.114,-113.817,74.135,-0.407,0.013,0.105,-0.302,0.316,1.051,0.058,-0.015,1.156,5.783,10.512,4.566,10.953,4.566,10.953
17.465,-1.265,0.240,0.732,-0.108,-7.412,5.058,9.112,-113.958,74.231,-0.213,-0.230,0.208,-0.309,0.318,1.054,0.063,-0.015,1.140,5.783,10.512,4.566,10.953,4.566,10.953
17.493,0.170,0.028,0.059,-0.139,-7.402,5.079,9.107,-114.262,74.439,-0.046,-0.385,0.252,-0.313,0.318,1.056,0.068,-0.015,1.142,5.783,10.512,4.566,10.953,4.566,10.953
17.519,0.804,-0.226,-0.553,-0.152,-7.397,5.087,9.104,-114.410,74.540,0.225,-0.524,0.308,-0.315,0.317,1.058,0.062,-0.036,1.145,5.783,10.512,4.566,10.953,4.566,10.953
17.548,0.995,-0.277,-0.936,-0.161,-7.394,5.093,9.101,-114.558,74.642,0.474,-0.520,0.261,-0.319,0.313,1.063,0.054,-0.048,1.151,5.783,10.512,4.566,10.953,4.566,10.953
17.579,0.827,0.243,-0.866,-0.173,-7.388,5.099,9.094,-114.853,74.846,0.353,-0.291,0.254,-0.319,0.309,1.067,0.034,-0.066,1.164,5.783,10.512,4.566,10.953,4.566,10.953
17.611,0.951,0.181,-0.860,-0.175,-7.385,5.098,9.091,-115.016,74.958,0.421,0.011,0.371,-0.317,0.303,1.074,0.023,-0.068,1.200,5.783,10.512,4.566,10.953,4.566,10.953
17.644,1.330,0.689,-2.043,-0.173,-7.379,5.092,9.084,-115.296,75.152,0.949,0.182,0.253,-0.311,0.298,1.082,-0.008,-0.060,1.195,5.783,10.512,4.566,10.953,4.566,10.953
17.672,1.334,1.213,-2.372,-0.167,-7.373,5.083,9.080,-115.451,75.259,0.964,0.139,0.173,-0.306,0.296,1.086,-0.023,-0.058,1.209,5.783,10.512,4.566,10.953,4.566,10.953
17.701,1.145,0.228,-0.948,-0.152,-7.360,5.057,9.074,-115.738,75.456,0.768,-0.116,0.162,-0.299,0.294,1.090,-0.065,-0.055,1.194,5.783,10.512,4.566,10.953,4.566,10.953
17.730,0.701,0.112,-0.374,-0.142,-7.354,5.043,9.071,-115.886,75.557,-0.017,0.122,-0.026,-0.285,0.291,1.098,-0.080,-0.063,1.238,5.783,10.512,4.566,10.953,4.566,10.953
17.762,-0.326,0.304,1.097,-0.122,-7.341,5.020,9.066,-116.179,75.758,-0.247,0.385,-0.013,-0.279,0.290,1.102,-0.074,-0.052,1.252,5.783,10.512,4.566,10.953,4.566,10.953
17.789,-0.445,0.300,1.784,-0.115,-7.336,5.014,9.064,-116.319,75.854,-0.227,0.494,0.013,-0.272,0.290,1.106,-0.068,-0.043,1.243,6.008,10.959,4.727,11.426,4.727,11.426
17.821,0.532,0.313,0.911,-0.103,-7.323,5.011,9.059,-116.619,76.059,0.417,0.127,-0.018,-0.265,0.291,1.110,-0.079,-0.035,1.230,6.008,10.959,4.727,11.426,4.727,11.426
17.850,0.816,0.912,0.563,-0.096,-7.317,5.013,9.057,-116.766,76.160,0.538,0.056,0.002,-0.255,0.293,1.114,-0.101,-0.032,1.193,6.008,10.959,4.727,11.426,4.727,11.426
17.881,1.813,0.399,0.001,-0.079,-7.299,5.017,9.054,-117.051,76.355,0.396,0.286,0.167,-0.249,0.295,1.116,-0.132,-0.030,1.195,6.008,10.959,4.727,11.426,4.727,11.426
17.910,0.764,-1.495,0.778,-0.066,-7.290,5.020,9.052,-117.211,76.466,-0.705,0.228,-0.182,-0.239,0.299,1.120,-0.133,-0.021,1.225,6.008,10.959,4.727,11.426,4.727,11.426
17.939,-3.509,-0.182,2.540,-0.051,-7.280,5.034,9.050,-117.495,76.662,-1.663,-0.018,-0.772,-0.237,0.302,1.121,-0.077,-0.015,1.286,6.008,10.959,4.727,11.426,4.727,11.426
17.969,-2.701,0.705,2.004,-0.055,-7.275,5.048,9.049,-117.641,76.762,-1.082,0.363,-0.707,-0.242,0.306,1.118,-0.031,-0.006,1.261,6.008,10.959,4.727,11.426,4.727,11.426
17.999,-0.880,0.037,-0.052,-0.072,-7.263,5.077,9.046,-117.932,76.965,-0.097,0.269,-0.335,-0.247,0.309,1.115,-0.003,0.010,1.246,6.008,10.959,4.727,11.426,4.727,11.426
18.030,-0.162,-1.730,-0.056,-0.082,-7.260,5.090,9.045,-118.084,77.072,0.886,-0.623,0.307,-0.255,0.314,1.109,-0.014,0.006,1.194,6.008,10.959,4.727,11.426,4.727,11.426
18.058,0.572,-1.820,-0.072,-0.097,-7.265,5.111,9.041,-118.367,77.271,0.759,-0.832,0.046,-0.255,0.314,1.107,-0.038,-0.041,1.192,6.008,10.959,4.727,11.426,4.727,11.426
18.083,0.624,-1.243,-0.743,-0.102,-7.272,5.118,9.039,-118.506,77.368,0.519,-0.640,-0.184,-0.254,0.313,1.106,-0.045,-0.063,1.180,6.008,10.959,4.727,11.426,4.727,11.426
18.108,0.627,0.198,-1.871,-0.105,-7.281,5.123,9.037,-118.658,77.475,0.215,0.478,-0.166,-0.250,0.309,1.102,-0.051,-0.065,1.191,6.008,10.959,4.727,11.426,4.727,11.426
18.133,0.815,0.589,-2.213,-0.106,-7.292,5.120,9.033,-118.950,77.680,0.089,0.777,-0.033,-0.248,0.309,1.099,-0.060,-0.035,1.175,6.008,10.959,4.727,11.426,4.727,11.426
18.159,1.165,0.334,-2.238,-0.105,-7.295,5.112,9.031,-119.088,77.777,0.089,0.721,0.072,-0.246,0.311,1.098,-0.071,-0.016,1.170,6.008,10.959,4.727,11.426,4.727,11.426
18.184,1.463,0.015,-1.967,-0.100,-7.298,5.100,9.029,-119.242,77.885,0.227,0.231,0.170,-0.241,0.316,1.095,-0.073,-0.007,1.216,6.008,10.959,4.727,11.426,4.727,11.426
18.209,1.403,-0.162,-1.694,-0.093,-7.300,5.087,9.027,-119.380,77.981,0.260,-0.009,0.130,-0.238,0.319,1.094,-0.087,-0.004,1.215,6.008,10.959,4.727,11.426,4.727,11.426
18.235,0.753,-0.286,-0.971,-0.074,-7.306,5.054,9.024,-119.680,78.189,0.272,-0.246,-0.024,-0.235,0.321,1.094,-0.100,-0.012,1.215,6.008,10.959,4.727,11.426,4.727,11.426
18.261,0.293,-0.021,-0.592,-0.065,-7.309,5.039,9.022,-119.819,78.285,0.202,-0.404,-0.183,-0.232,0.323,1.093,-0.104,-0.020,1.221,6.008,10.959,4.727,11.426,4.727,11.426
18.288,-0.251,0.236,-0.076,-0.055,-7.311,5.022,9.021,-119.979,78.396,-0.148,-0.271,-0.183,-0.226,0.323,1.091,-0.104,-0.026,1.229,6.238,11.403,4.898,11.896,4.898,11.896
18.316,-0.466,0.751,1.366,-0.041,-7.313,4.999,9.019,-120.265,78.591,-0.303,-0.121,0.007,-0.225,0.323,1.090,-0.096,-0.031,1.219,6.238,11.403,4.898,11.896,4.898,11.896
18.342,-0.680,1.357,2.313,-0.037,-7.311,4.993,9.018,-120.411,78.691,-0.352,0.043,0.244,-0.223,0.322,1.089,-0.088,-0.031,1.218,6.238,11.403,4.898,11.896,4.898,11.896
18.367,-0.713,0.976,3.041,-0.035,-7.308,4.994,9.018,-120.550,78.786,0.687,0.364,0.786,-0.221,0.322,1.090,-0.093,-0.024,1.186,6.238,11.403,4.898,11.896,4.898,11.896
18.394,1.355,0.923,1.055,-0.032,-7.296,5.010,9.016,-120.842,78.986,1.228,0.380,0.812,-0.218,0.324,1.093,-0.140,-0.014,1.131,6.238,11.403,4.898,11.896,4.898,11.896
18.420,1.799,0.471,0.108,-0.027,-7.288,5.020,9.016,-120.988,79.086,1.376,0.396,0.621,-0.212,0.326,1.097,-0.163,-0.010,1.140,6.238,11.403,4.898,11.896,4.898,11.896
18.448,1.297,-0.852,0.272,-0.018,-7.282,5.029,9.015,-121.141,79.192,0.621,-0.071,0.166,-0.197,0.331,1.107,-0.192,-0.014,1.200,6.238,11.403,4.898,11.896,4.898,11.896
18.475,-2.089,-0.567,1.616,-0.006,-7.277,5.050,9.015,-121.424,79.388,-0.114,-0.556,-0.371,-0.188,0.332,1.111,-0.184,-0.029,1.245,6.238,11.403,4.898,11.896,4.898,11.896
18.501,-2.337,-0.330,1.500,-0.006,-7.277,5.064,9.015,-121.570,79.490,-0.591,-0.597,-0.552,-0.182,0.333,1.114,-0.172,-0.040,1.288,6.238,11.403,4.898,11.896,4.898,11.896
18.528,-1.952,0.147,0.812,-0.010,-7.277,5.079,9.014,-121.723,79.596,-0.436,0.269,-0.224,-0.173,0.332,1.116,-0.148,-0.038,1.325,6.238,11.403,4.898,11.896,4.898,11.896
18.555,-0.684,-0.280,-0.839,-0.026,-7.278,5.104,9.014,-122.007,79.795,-0.166,0.418,-0.023,-0.171,0.332,1.117,-0.130,-0.022,1.338,6.238,11.403,4.898,11.896,4.898,11.896
18.583,-0.755,0.056,-1.298,-0.035,-7.279,5.113,9.013,-122.160,79.902,-0.101,0.213,-0.120,-0.169,0.333,1.117,-0.129,-0.017,1.334,6.238,11.403,4.898,11.896,4.898,11.896
18.609,-0.768,0.218,-1.196,-0.045,-7.280,5.119,9.012,-122.305,80.004,-0.473,-0.290,-0.219,-0.167,0.335,1.116,-0.118,-0.012,1.304,6.238,11.403,4.898,11.896,4.898,11.896
18.634,-0.409,-0.064,-0.949,-0.066,-7.281,5.122,9.010,-122.596,80.209,-0.563,-0.296,-0.145,-0.168,0.335,1.116,-0.095,-0.021,1.307,6.238,11.403,4.898,11.896,4.898,11.896
18.659,-0.100,0.038,-0.991,-0.075,-7.281,5.120,9.009,-122.735,80.306,-0.553,-0.250,-0.089,-0.170,0.334,1.114,-0.083,-0.026,1.281,6.238,11.403,4.898,11.896,4.898,11.896
18.685,0.026,0.085,-0.895,-0.084,-7.281,5.117,9.007,-122.880,80.409,-0.360,-0.165,-0.006,-0.176,0.331,1.112,-0.073,-0.027,1.232,6.238,11.403,4.898,11.896,4.898,11.896
18.710,0.238,0.177,-0.926,-0.092,-7.281,5.112,9.005,-123.040,80.521,-0.134,-0.147,0.033,-0.179,0.330,1.112,-0.065,-0.031,1.228,6.238,11.403,4.898,11.896,4.898,11.896
18.736,0.827,0.632,-1.745,-0.102,-7.279,5.097,9.001,-123.324,80.720,0.140,-0.093,0.056,-0.182,0.329,1.111,-0.069,-0.034,1.217,6.238,11.403,4.898,11.896,4.898,11.896
18.762,0.680,0.836,-1.740,-0.104,-7.276,5.085,8.999,-123.463,80.817,0.342,-0.012,0.070,-0.184,0.327,1.110,-0.084,-0.026,1.216,6.238,11.403,4.898,11.896,4.898,11.896
18.788,0.912,0.829,-1.654,-0.105,-7.272,5.071,8.997,-123.615,80.924,0.458,0.143,0.139,-0.186,0.325,1.110,-0.091,-0.025,1.201,6.238,11.403,4.898,11.896,4.898,11.896
18.817,1.248,0.524,-1.282,-0.099,-7.262,5.039,8.993,-123.906,81.126,0.498,0.215,0.314,-0.186,0.324,1.111,-0.118,-0.016,1.165,6.460,11.851,5.079,12.362,5.079,12.362
18.843,0.940,0.800,-0.896,-0.093,-7.256,5.021,8.991,-124.051,81.226,0.104,0.272,0.116,-0.182,0.325,1.113,-0.135,-0.007,1.151,6.460,11.851,5.079,12.362,5.079,12.362
18.869,0.421,1.026,-0.202,-0.087,-7.249,5.006,8.990,-124.189,81.322,-0.138,0.283,0.009,-0.180,0.327,1.115,-0.134,-0.004,1.149,6.460,11.851,5.079,12.362,5.079,12.362
18.896,-0.381,1.111,1.210,-0.075,-7.230,4.979,8.986,-124.479,81.521,-0.269,0.276,-0.055,-0.179,0.328,1.116,-0.126,0.010,1.146,6.460,11.851,5.079,12.362,5.079,12.362
18.923,-0.399,1.086,1.395,-0.071,-7.218,4.971,8.985,-124.630,81.626,-0.239,0.269,-0.070,-0.179,0.330,1.117,-0.123,0.019,1.139,6.460,11.851,5.079,12.362,5.079,12.362
18.950,-0.518,1.443,1.330,-0.069,-7.206,4.967,8.983,-124.775,81.725,0.084,0.151,-0.076,-0.178,0.335,1.118,-0.118,0.023,1.116,6.460,11.851,5.079,12.362,5.079,12.362
18.978,-0.014,1.226,1.791,-0.066,-7.178,4.968,8.981,-125.055,81.919,0.349,-0.110,0.139,-0.178,0.337,1.119,-0.125,0.025,1.094,6.460,11.851,5.079,12.362,5.079,12.362
19.004,0.476,1.155,2.091,-0.065,-7.161,4.975,8.979,-125.206,82.023,0.671,-0.172,0.313,-0.174,0.340,1.121,-0.141,0.021,1.074,6.460,11.851,5.079,12.362,5.079,12.362
19.030,0.868,0.650,1.448,-0.062,-7.145,4.984,8.978,-125.349,82.123,0.859,-0.309,0.348,-0.171,0.341,1.123,-0.149,0.014,1.065,6.460,11.851,5.079,12.362,5.079,12.362
19.056,0.777,-2.029,1.251,-0.052,-7.121,5.008,8.976,-125.634,82.323,0.843,-0.759,0.195,-0.166,0.340,1.125,-0.182,-0.025,1.066,6.460,11.851,5.079,12.362,5.079,12.362
19.086,-0.754,-0.839,0.487,-0.047,-7.115,5.021,8.975,-125.776,82.423,-0.206,-0.498,-0.546,-0.154,0.335,1.128,-0.182,-0.048,1.112,6.460,11.851,5.079,12.362,5.079,12.362
19.113,-1.870,0.539,0.183,-0.045,-7.107,5.046,8.973,-126.061,82.624,-0.456,0.220,-0.341,-0.150,0.332,1.128,-0.156,-0.045,1.156,6.460,11.851,5.079,12.362,5.079,12.362
19.140,-1.706,0.170,0.254,-0.050,-7.102,5.058,8.972,-126.203,82.725,-0.418,0.454,-0.121,-0.148,0.329,1.127,-0.145,-0.036,1.153,6.460,11.851,5.079,12.362,5.079,12.362
19.166,-1.074,-0.956,0.760,-0.057,-7.098,5.069,8.971,-126.345,82.827,-0.138,-0.330,0.114,-0.144,0.326,1.126,-0.129,-0.038,1.148,6.460,11.851,5.079,12.362,5.079,12.362
19.191,-0.481,-1.423,0.964,-0.065,-7.097,5.081,8.970,-126.487,82.928,-0.054,-0.562,0.016,-0.143,0.324,1.126,-0.124,-0.046,1.131,6.460,11.851,5.079,12.362,5.079,12.362
19.220,0.752,-0.798,-0.840,-0.079,-7.103,5.104,8.967,-126.764,83.127,0.040,-0.341,-0.117,-0.143,0.321,1.126,-0.117,-0.074,1.176,6.460,11.851,5.079,12.362,5.079,12.362
19.246,1.018,-0.114,-2.325,-0.083,-7.107,5.111,8.965,-126.913,83.234,0.082,0.732,-0.232,-0.141,0.316,1.125,-0.128,-0.068,1.151,6.460,11.851,5.079,12.362,5.079,12.362
19.274,1.234,0.457,-3.597,-0.082,-7.114,5.104,8.962,-127.190,83.433,-0.002,0.931,-0.219,-0.140,0.317,1.123,-0.142,-0.026,1.062,6.460,11.851,5.079,12.362,5.079,12.362
19.300,1.273,0.487,-3.159,-0.078,-7.115,5.091,8.960,-127.340,83.540,-0.112,0.805,-0.213,-0.139,0.319,1.122,-0.136,-0.011,1.053,6.677,12.302,5.323,12.798,5.323,12.798
19.328,1.023,0.373,-2.286,-0.072,-7.115,5.074,8.959,-127.482,83.642,-0.175,0.042,-0.242,-0.138,0.325,1.118,-0.143,0.004,0.979,6.677,12.302,5.323,12.798,5.323,12.798
19.357,1.036,-0.004,-1.705,-0.056,-7.115,5.034,8.956,-127.759,83.839,-0.100,-0.147,-0.200,-0.139,0.327,1.115,-0.141,0.001,0.972,6.677,12.302,5.323,12.798,5.323,12.798
19.383,0.778,0.058,-1.145,-0.046,-7.115,5.012,8.955,-127.902,83.940,-0.143,-0.140,-0.173,-0.140,0.331,1.110,-0.140,-0.002,0.936,6.677,12.302,5.323,12.798,5.323,12.798
19.409,0.335,0.183,-0.411,-0.036,-7.114,4.991,8.954,-128.044,84.040,-0.243,-0.170,-0.177,-0.141,0.332,1.107,-0.140,-0.003,0.901,6.677,12.302,5.323,12.798,5.323,12.798
19.436,-0.049,0.366,0.931,-0.017,-7.112,4.954,8.953,-128.336,84.244,-0.286,-0.242,-0.143,-0.142,0.333,1.105,-0.131,-0.011,0.928,6.677,12.302,5.323,12.798,5.323,12.798
19.463,-0.125,0.756,1.323,-0.010,-7.110,4.941,8.953,-128.478,84.342,-0.275,-0.286,-0.084,-0.144,0.333,1.102,-0.125,-0.016,0.889,6.677,12.302,5.323,12.798,5.323,12.798
19.490,0.067,1.106,1.625,-0.003,-7.107,4.934,8.953,-128.613,84.436,-0.083,-0.070,0.167,-0.148,0.332,1.097,-0.125,-0.019,0.887,6.677,12.302,5.323,12.798,5.323,12.798
19.517,1.346,0.587,1.480,0.012,-7.095,4.928,8.953,-128.904,84.638,0.193,0.148,0.400,-0.150,0.331,1.096,-0.138,-0.023,0.843,6.677,12.302,5.323,12.798,5.323,12.798
19.543,1.413,0.707,1.634,0.022,-7.087,4.931,8.953,-129.046,84.737,0.534,0.049,0.414,-0.151,0.331,1.096,-0.147,-0.021,0.790,6.677,12.302,5.323,12.798,5.323,12.798
19.570,0.937,1.101,1.484,0.033,-7.080,4.936,8.954,-129.180,84.831,0.497,0.023,0.243,-0.150,0.331,1.097,-0.167,-0.021,0.780,6.677,12.302,5.323,12.798,5.323,12.798
19.597,-0.307,-0.616,1.080,0.056,-7.064,4.952,8.956,-129.463,85.028,0.231,-0.123,-0.065,-0.148,0.331,1.099,-0.176,-0.030,0.769,6.677,12.302,5.323,12.798,5.323,12.798
19.625,-1.723,0.013,1.444,0.064,-7.058,4.963,8.957,-129.605,85.128,-0.551,-0.313,-0.573,-0.146,0.330,1.099,-0.173,-0.035,0.762,6.677,12.302,5.323,12.798,5.323,12.798
19.650,-3.013,0.990,1.943,0.067,-7.051,4.977,8.958,-129.760,85.237,-0.590,-0.222,-0.425,-0.147,0.328,1.098,-0.147,-0.029,0.798,6.677,12.302,5.323,12.798,5.323,12.798
19.678,-1.894,0.456,0.827,0.056,-7.037,5.008,8.961,-130.034,85.432,-0.430,-0.067,-0.150,-0.148,0.327,1.096,-0.108,-0.032,0.837,6.677,12.302,5.323,12.798,5.323,12.798
19.704,-1.087,0.460,-0.091,0.046,-7.030,5.022,8.962,-130.168,85.527,-0.247,0.226,0.217,-0.152,0.324,1.093,-0.095,-0.035,0.802,6.677,12.302,5.323,12.798,5.323,12.798
19.730,-0.467,0.594,-0.752,0.034,-7.021,5.036,8.963,-130.316,85.633,-0.239,0.296,0.292,-0.155,0.324,1.093,-0.089,-0.023,0.791,6.677,12.302,5.323,12.798,5.323,12.798
19.759,0.334,0.397,-1.736,0.015,-7.004,5.052,8.964,-130.589,85.829,-0.204,0.242,0.321,-0.158,0.324,1.093,-0.076,-0.012,0.792,6.677,12.302,5.323,12.798,5.323,12.798
19.785,0.516,-0.070,-1.822,0.008,-6.996,5.053,8.964,-130.736,85.935,-0.205,0.038,0.292,-0.161,0.325,1.094,-0.072,-0.011,0.761,6.677,12.302,5.323,12.798,5.323,12.798
19.815,0.537,-0.424,-1.029,-0.001,-6.984,5.047,8.964,-131.009,86.132,-0.313,-0.276,0.194,-0.167,0.325,1.096,-0.062,-0.022,0.834,6.906,12.746,5.685,13.143,5.685,13.143
19.843,0.704,-0.222,-1.219,-0.003,-6.979,5.040,8.964,-131.155,86.238,-0.095,0.032,0.188,-0.174,0.324,1.099,-0.060,-0.028,0.797,6.906,12.746,5.685,13.143,5.685,13.143
19.869,1.346,-0.195,-1.977,-0.003,-6.976,5.032,8.964,-131.288,86.334,0.137,0.133,0.221,-0.178,0.323,1.101,-0.058,-0.027,0.816,6.906,12.746,5.685,13.143,5.685,13.143
19.895,1.967,0.021,-2.561,0.007,-6.971,5.003,8.964,-131.574,86.540,0.216,0.077,0.169,-0.180,0.323,1.104,-0.079,-0.026,0.749,6.906,12.746,5.685,13.143,5.685,13.143
19.921,1.633,0.213,-2.386,0.017,-6.968,4.983,8.964,-131.713,86.640,0.164,-0.033,0.039,-0.182,0.323,1.106,-0.098,-0.025,0.700,6.906,12.746,5.685,13.143,5.685,13.143
19.948,0.805,0.608,-0.863,0.028,-6.965,4.962,8.965,-131.853,86.739,-0.099,-0.198,-0.145,-0.185,0.322,1.110,-0.099,-0.028,0.637,6.906,12.746,5.685,13.143,5.685,13.143
19.976,-0.007,0.657,0.307,0.050,-6.957,4.925,8.966,-132.124,86.932,-0.127,-0.166,-0.161,-0.187,0.321,1.111,-0.100,-0.032,0.635,6.906,12.746,5.685,13.143,5.685,13.143
20.001,-0.683,1.082,1.247,0.059,-6.951,4.910,8.967,-132.270,87.035,-0.127,-0.125,-0.195,-0.188,0.320,1.111,-0.098,-0.027,0.612,6.906,12.746,5.685,13.143,5.685,13.143
20.028,-1.102,1.469,1.629,0.065,-6.943,4.899,8.969,-132.409,87.133,-0.070,-0.197,-0.254,-0.192,0.317,1.111,-0.095,-0.030,0.590,6.906,12.746,5.685,13.143,5.685,13.143
20.055,-0.428,1.131,1.052,0.071,-6.923,4.890,8.971,-132.679,87.324,0.181,-0.127,-0.128,-0.193,0.316,1.111,-0.097,-0.028,0.599,6.906,12.746,5.685,13.143,5.685,13.143
20.081,-0.040,0.665,1.097,0.072,-6.911,4.890,8.973,-132.818,87.422,0.434,0.027,0.055,-0.194,0.314,1.110,-0.109,-0.025,0.556,6.906,12.746,5.685,13.143,5.685,13.143
20.108,0.065,0.777,1.626,0.073,-6.898,4.892,8.974,-132.963,87.525,0.497,-0.099,0.162,-0.193,0.311,1.109,-0.119,-0.025,0.542,6.906,12.746,5.685,13.143,5.685,13.143
20.136,1.010,-0.741,0.725,0.077,-6.874,4.904,8.977,-133.238,87.720,0.476,-0.183,0.164,-0.191,0.310,1.109,-0.145,-0.033,0.552,6.906,12.746,5.685,13.143,5.685,13.143
20.163,0.418,-1.724,0.313,0.081,-6.866,4.911,8.979,-133.369,87.814,0.501,-0.109,0.159,-0.188,0.308,1.110,-0.151,-0.052,0.624,6.906,12.746,5.685,13.143,5.685,13.143
20.189,-1.549,-0.533,0.858,0.084,-6.862,4.919,8.980,-133.506,87.912,-0.502,-0.413,-0.468,-0.182,0.304,1.111,-0.156,-0.056,0.609,6.906,12.746,5.685,13.143,5.685,13.143
20.212,-3.153,0.144,3.115,0.072,-6.854,4.943,8.983,-133.780,88.109,-1.305,0.004,-0.126,-0.181,0.302,1.110,-0.127,-0.055,0.634,6.906,12.746,5.685,13.143,5.685,13.143
20.238,-2.143,-0.796,2.796,0.059,-6.851,4.963,8.985,-133.924,88.213,-0.731,0.269,0.326,-0.182,0.300,1.110,-0.072,-0.053,0.712,6.906,12.746,5.685,13.143,5.685,13.143
20.265,-0.130,-1.442,0.418,0.044,-6.851,4.983,8.986,-134.061,88.313,0.280,0.079,0.312,-0.186,0.298,1.111,-0.071,-0.050,0.587,6.906,12.746,5.685,13.143,5.685,13.143
20.290,0.550,-1.419,-0.389,0.033,-6.854,5.000,8.987,-134.191,88.408,0.205,0.088,0.184,-0.187,0.298,1.113,-0.074,-0.063,0.635,6.906,12.746,5.685,13.143,5.685,13.143
20.316,1.040,-0.454,-1.456,0.016,-6.864,5.028,8.988,-134.473,88.613,0.013,0.193,-0.012,-0.188,0.297,1.114,-0.073,-0.071,0.684,6.906,12.746,5.685,13.143,5.685,13.143
20.343,0.900,0.467,-2.215,0.012,-6.869,5.035,8.988,-134.610,88.714,-0.111,0.435,-0.189,-0.188,0.298,1.116,-0.062,-0.069,0.734,6.906,12.746,5.685,13.143,5.685,13.143
20.368,0.730,0.796,-2.511,0.010,-6.873,5.036,8.988,-134.740,88.809,-0.249,0.834,-0.232,-0.190,0.302,1.116,-0.066,-0.043,0.780,6.906,12.746,5.685,13.143,5.685,13.143
20.396,0.771,0.675,-1.950,0.010,-6.874,5.025,8.988,-135.015,89.011,-0.238,0.705,-0.172,-0.192,0.306,1.116,-0.057,-0.009,0.773,6.906,12.746,5.685,13.143,5.685,13.143
20.421,0.887,0.617,-1.752,0.013,-6.872,5.015,8.989,-135.153,89.111,-0.116,0.462,-0.112,-0.194,0.311,1.115,-0.048,-0.004,0.841,6.906,12.746,5.685,13.143,5.685,13.143
20.448,0.764,0.434,-1.502,0.017,-6.869,5.001,8.989,-135.297,89.216,0.108,-0.001,-0.059,-0.197,0.321,1.114,-0.054,0.005,0.871,6.906,12.746,5.685,13.143,5.685,13.143
20.474,0.902,-0.208,-1.311,0.029,-6.864,4.972,8.990,-135.565,89.411,0.186,-0.123,-0.018,-0.198,0.325,1.113,-0.059,-0.002,0.888,6.906,12.746,5.685,13.143,5.685,13.143
20.500,0.845,-0.232,-0.903,0.037,-6.862,4.955,8.991,-135.709,89.515,0.156,-0.151,-0.015,-0.198,0.328,1.112,-0.056,-0.008,0.905,6.906,12.746,5.685,13.143,5.685,13.143
20.526,0.603,-0.156,-0.363,0.045,-6.861,4.939,8.991,-135.846,89.614,-0.070,-0.024,-0.004,-0.199,0.334,1.111,-0.060,-0.013,0.915,6.906,12.746,5.685,13.143,5.685,13.143
20.552,0.590,0.058,-0.163,0.054,-6.860,4.925,8.992,-135.984,89.713,-0.186,0.203,0.056,-0.200,0.336,1.110,-0.054,-0.016,0.958,6.906,12.746,5.685,13.143,5.685,13.143
20.579,0.210,0.945,1.637,0.071,-6.856,4.901,8.995,-136.258,89.909,-0.368,0.551,0.197,-0.201,0.339,1.110,-0.043,-0.001,0.967,6.906,12.746,5.685,13.143,5.685,13.143
20.606,0.580,0.658,2.301,0.078,-6.851,4.897,8.996,-136.388,90.002,-0.221,0.795,0.550,-0.205,0.348,1.112,-0.041,0.012,1.003,6.906,12.746,5.685,13.143,5.685,13.143
20.632,1.197,0.456,2.274,0.088,-6.846,4.898,8.998,-136.532,90.105,0.244,0.401,0.461,-0.207,0.354,1.114,-0.033,0.026,1.033,6.906,12.746,5.685,13.143,5.685,13.143
20.659,1.035,0.837,1.058,0.109,-6.835,4.907,9.002,-136.799,90.296,0.696,-0.144,0.213,-0.207,0.360,1.116,-0.059,0.023,0.994,6.906,12.746,5.685,13.143,5.685,13.143
20.688,0.285,1.346,1.056,0.121,-6.827,4.915,9.004,-136.935,90.394,0.709,-0.424,-0.158,-0.205,0.367,1.121,-0.082,0.018,1.035,6.906,12.746,5.685,13.143,5.685,13.143
20.718,0.105,-0.288,-0.180,0.145,-6.809,4.932,9.010,-137.215,90.596,0.599,-0.177,-0.106,-0.201,0.370,1.123,-0.108,0.004,1.029,6.906,12.746,5.685,13.143,5.685,13.143
20.747,-1.667,0.179,0.520,0.153,-6.801,4.939,9.013,-137.351,90.695,-0.038,-0.136,-0.359,-0.193,0.373,1.125,-0.117,0.005,1.128,6.906,12.746,5.685,13.143,5.685,13.143
20.776,-2.731,1.671,0.951,0.154,-6.782,4.956,9.019,-137.616,90.888,-0.523,-0.371,-0.572,-0.190,0.374,1.125,-0.094,0.007,1.202,6.906,12.746,5.685,13.143,5.685,13.143
20.803,-1.574,1.128,0.325,0.146,-6.769,4.967,9.022,-137.758,90.992,0.004,-0.149,0.202,-0.187,0.373,1.122,-0.079,0.010,1.280,7.122,13.197,5.865,13.610,5.865,13.610
20.833,-0.292,0.202,-1.148,0.128,-6.744,4.981,9.027,-138.028,91.191,0.264,-0.216,0.160,-0.186,0.372,1.121,-0.082,0.008,1.267,7.122,13.197,5.865,13.610,5.865,13.610
20.858,-0.632,0.171,-0.413,0.120,-6.732,4.985,9.030,-138.163,91.291,-0.039,-0.346,0.059,-0.184,0.371,1.121,-0.081,0.001,1.253,7.122,13.197,5.865,13.610,5.865,13.610
20.886,-1.080,0.167,0.076,0.110,-6.722,4.988,9.032,-138.298,91.391,-0.363,-0.413,-0.050,-0.183,0.367,1.120,-0.068,-0.003,1.248,7.122,13.197,5.865,13.610,5.865,13.610
20.912,-1.013,0.053,0.137,0.099,-6.713,4.991,9.034,-138.425,91.485,-0.227,-0.338,0.040,-0.183,0.363,1.119,-0.061,-0.012,1.258,7.122,13.197,5.865,13.610,5.865,13.610
20.940,0.593,-0.371,-1.167,0.078,-6.696,4.995,9.038,-138.700,91.690,0.001,-0.199,0.159,-0.184,0.360,1.119,-0.052,-0.023,1.259,7.122,13.197,5.865,13.610,5.865,13.610
20.971,1.264,-0.327,-2.038,0.071,-6.690,4.992,9.039,-138.834,91.790,0.247,0.269,0.332,-0.185,0.354,1.119,-0.064,-0.025,1.274,7.122,13.197,5.865,13.610,5.865,13.610
21.000,2.307,-0.694,-2.615,0.067,-6.683,4.976,9.042,-139.101,91.989,0.260,0.348,0.385,-0.184,0.352,1.121,-0.092,-0.022,1.221,7.122,13.197,5.865,13.610,5.865,13.610
21.031,2.660,-1.004,-2.622,0.074,-6.682,4.960,9.043,-139.242,92.094,0.161,0.046,0.121,-0.182,0.351,1.125,-0.097,-0.018,1.286,7.122,13.197,5.865,13.610,5.865,13.610
21.059,1.648,-0.254,-2.247,0.096,-6.684,4.922,9.047,-139.496,92.281,0.035,-0.154,-0.137,-0.180,0.350,1.127,-0.121,-0.028,1.224,7.122,13.197,5.865,13.610,5.865,13.610
21.086,0.832,0.311,-1.536,0.111,-6.686,4.898,9.049,-139.629,92.380,-0.313,-0.347,-0.443,-0.179,0.348,1.129,-0.127,-0.030,1.239,7.122,13.197,5.865,13.610,5.865,13.610
21.110,0.200,0.761,-0.853,0.128,-6.686,4.871,9.051,-139.783,92.492,-0.400,-0.288,-0.456,-0.179,0.346,1.128,-0.121,-0.036,1.240,7.122,13.197,5.865,13.610,5.865,13.610
21.136,-0.613,1.174,0.706,0.150,-6.681,4.832,9.057,-140.037,92.676,-0.414,-0.265,-0.407,-0.180,0.343,1.127,-0.107,-0.036,1.225,7.122,13.197,5.865,13.610,5.865,13.610
21.161,-0.755,1.370,1.275,0.157,-6.676,4.817,9.060,-140.164,92.768,-0.356,-0.247,-0.329,-0.182,0.341,1.125,-0.100,-0.032,1.251,7.122,13.197,5.865,13.610,5.865,13.610
21.186,-0.847,1.425,1.931,0.163,-6.667,4.807,9.063,-140.298,92.864,-0.060,-0.106,-0.132,-0.186,0.335,1.120,-0.095,-0.035,1.202,7.122,13.197,5.865,13.610,5.865,13.610
21.211,-0.450,1.031,1.722,0.167,-6.658,4.801,9.066,-140.431,92.960,0.247,-0.115,-0.026,-0.188,0.332,1.118,-0.096,-0.033,1.189,7.122,13.197,5.865,13.610,5.865,13.610
21.238,0.400,0.730,1.466,0.173,-6.636,4.799,9.073,-140.703,93.157,0.470,-0.149,0.038,-0.189,0.330,1.115,-0.117,-0.038,1.157,7.122,13.197,5.865,13.610,5.865,13.610
21.263,1.014,0.899,1.247,0.177,-6.625,4.802,9.076,-140.829,93.248,0.511,-0.120,0.123,-0.188,0.324,1.112,-0.127,-0.042,1.202,7.122,13.197,5.865,13.610,5.865,13.610
21.289,1.352,0.211,0.317,0.183,-6.613,4.807,9.080,-140.962,93.344,0.564,-0.015,0.081,-0.185,0.321,1.111,-0.149,-0.050,1.188,7.343,13.645,6.060,14.070,6.060,14.070
21.315,-1.430,-0.398,0.952,0.197,-6.595,4.817,9.088,-141.232,93.542,0.390,-0.153,-0.160,-0.183,0.319,1.110,-0.155,-0.053,1.193,7.343,13.645,6.060,14.070,6.060,14.070
21.341,-3.673,0.519,2.506,0.198,-6.589,4.824,9.092,-141.364,93.638,-0.321,-0.687,-0.632,-0.180,0.316,1.108,-0.150,-0.065,1.203,7.343,13.645,6.060,14.070,6.060,14.070
21.367,-3.658,0.473,2.739,0.191,-6.582,4.837,9.096,-141.496,93.735,-1.445,-0.734,-0.729,-0.180,0.305,1.101,-0.107,-0.074,1.198,7.343,13.645,6.060,14.070,6.060,14.070
21.395,-1.373,-0.781,0.381,0.163,-6.569,4.868,9.103,-141.752,93.924,-0.955,-0.049,-0.206,-0.185,0.299,1.096,-0.047,-0.089,1.250,7.343,13.645,6.060,14.070,6.060,14.070
21.421,-0.316,-1.300,0.028,0.146,-6.565,4.885,9.106,-141.897,94.031,-0.307,0.276,0.231,-0.190,0.294,1.092,-0.040,-0.084,1.211,7.343,13.645,6.060,14.070,6.060,14.070
21.447,-0.173,-1.441,0.408,0.132,-6.565,4.899,9.109,-142.022,94.124,-0.260,-0.380,0.054,-0.200,0.285,1.085,-0.029,-0.100,1.207,7.343,13.645,6.060,14.070,6.060,14.070
