time,acc_x,acc_y,acc_z,vel_x,vel_y,vel_z,pos_x,pos_y,pos_z,rad_vel_x,rad_vel_y,rad_vel_z,rad_gyro_x,rad_gyro_y,rad_gyro_z,rad_mag_x,rad_mag_y,rad_mag_z
0.068,-0.001,-0.010,0.245,0.000,0.000,0.000,0.000,0.000,0.000,-0.001,0.000,0.000,0.099,-0.010,-0.002,-0.010,-0.002,0.099
0.251,0.026,0.012,0.216,0.000,0.000,0.000,0.000,0.000,0.000,-0.001,-0.001,0.000,0.092,-0.010,-0.002,-0.010,-0.002,0.092
0.305,0.014,0.002,0.216,0.000,0.000,0.000,0.000,0.000,0.000,-0.001,0.000,0.000,0.127,-0.010,-0.003,-0.010,-0.003,0.127
0.347,0.012,0.003,0.226,0.000,0.000,0.000,0.000,0.000,0.000,-0.001,-0.001,0.000,0.042,-0.010,-0.003,-0.010,-0.003,0.042
0.395,0.001,-0.004,0.216,0.000,0.000,0.000,0.000,0.000,0.000,-0.001,-0.001,0.000,0.103,-0.010,-0.003,-0.010,-0.003,0.103
0.440,-0.008,-0.003,0.235,0.000,0.000,0.000,0.000,0.000,0.000,-0.002,-0.001,0.000,0.123,-0.010,-0.003,-0.010,-0.003,0.123
0.475,0.011,-0.004,0.206,0.000,0.000,0.000,0.000,0.000,0.000,-0.002,-0.001,0.000,0.089,-0.010,-0.003,-0.010,-0.003,0.089
0.515,0.011,0.005,0.196,0.000,0.000,0.000,0.000,0.000,0.000,-0.002,-0.001,0.000,0.075,-0.010,-0.003,-0.010,-0.003,0.075
0.549,0.001,0.006,0.186,0.000,0.000,0.000,0.000,0.000,0.000,0.000,-0.001,0.000,0.076,-0.010,-0.003,-0.010,-0.003,0.076
0.585,0.009,-0.004,0.206,0.000,0.000,0.000,0.000,0.000,0.000,-0.001,-0.001,0.000,0.066,-0.010,-0.003,-0.010,-0.003,0.066
0.620,-0.003,-0.014,0.196,0.000,0.000,0.000,0.000,0.000,0.000,-0.001,0.000,-0.001,0.077,-0.010,-0.003,-0.010,-0.003,0.077
0.654,0.007,-0.005,0.206,0.000,0.000,0.000,0.000,0.000,0.000,-0.001,-0.001,0.000,0.087,-0.010,-0.003,-0.010,-0.003,0.087
0.688,0.006,-0.014,0.196,0.000,0.000,0.000,0.000,0.000,0.000,-0.001,0.000,-0.001,0.111,-0.010,-0.003,-0.010,-0.003,0.111
0.723,-0.003,-0.002,0.167,0.000,0.000,0.000,0.000,0.000,0.000,-0.001,0.000,0.000,0.105,-0.010,-0.003,-0.010,-0.003,0.105
0.756,0.016,0.005,0.157,0.000,0.000,0.000,0.000,0.000,0.000,-0.002,-0.001,-0.001,0.101,-0.010,-0.003,-0.010,-0.003,0.101
0.790,0.007,0.006,0.147,0.000,0.000,0.000,0.000,0.000,0.000,-0.001,-0.001,-0.001,0.113,-0.010,-0.003,-0.010,-0.003,0.113
0.821,-0.006,-0.012,0.157,0.000,0.000,0.000,0.000,0.000,0.000,-0.001,0.000,-0.001,0.072,-0.010,-0.003,-0.010,-0.003,0.072
0.851,-0.006,-0.012,0.157,0.000,0.000,0.000,0.000,0.000,0.000,-0.001,-0.001,0.000,0.092,-0.010,-0.003,-0.010,-0.003,0.092
0.878,-0.013,0.008,0.147,0.000,0.000,0.000,0.000,0.000,0.000,-0.001,-0.001,-0.001,0.084,-0.010,-0.003,-0.010,-0.003,0.084
0.910,-0.003,0.007,0.157,0.000,0.000,0.000,0.000,0.000,0.000,-0.001,-0.001,0.000,0.105,-0.010,-0.003,-0.010,-0.003,0.105
0.941,-0.005,-0.011,0.157,0.000,0.000,0.000,0.000,0.000,0.000,-0.001,-0.001,-0.001,0.134,-0.010,-0.003,-0.010,-0.003,0.134
0.971,-0.013,-0.009,0.147,0.000,0.000,0.000,0.000,0.000,0.000,-0.001,0.000,-0.001,0.102,-0.010,-0.003,-0.010,-0.003,0.102
1.000,-0.002,-0.001,0.137,0.000,0.000,0.000,0.000,0.000,0.000,-0.001,0.000,0.000,0.095,-0.010,-0.003,-0.010,-0.003,0.095
1.026,-0.002,-0.001,0.118,0.000,0.000,0.000,0.000,0.000,0.000,-0.001,0.000,-0.001,0.095,-0.010,-0.003,-0.010,-0.003,0.048
1.052,0.006,-0.002,0.137,0.000,0.000,0.000,0.000,0.000,0.000,-0.002,-0.001,0.000,0.095,-0.010,-0.003,-0.010,-0.003,0.052
1.077,0.005,-0.011,-0.000,0.000,0.000,0.000,0.000,0.000,0.000,-0.001,-0.001,0.000,0.095,-0.010,-0.003,-0.010,-0.003,0.080
1.102,0.006,-0.001,-0.010,0.000,0.000,0.000,0.000,0.000,0.000,-0.002,0.000,-0.001,0.095,-0.010,-0.003,-0.010,-0.003,0.072
1.129,0.005,-0.001,-0.010,0.000,0.000,0.000,0.000,0.000,0.000,-0.001,-0.001,0.000,0.095,-0.010,-0.003,-0.010,-0.003,0.071
1.154,0.005,-0.001,-0.019,0.000,0.000,0.000,0.000,0.000,0.000,-0.001,-0.001,0.000,0.095,-0.010,-0.003,-0.010,-0.003,0.083
1.179,-0.015,-0.009,-0.010,0.000,0.000,0.000,0.000,0.000,0.000,-0.001,-0.001,-0.001,0.095,-0.010,-0.003,-0.010,-0.003,0.084
1.205,-0.005,-0.009,-0.000,0.000,0.000,0.000,0.000,0.000,0.000,-0.001,-0.001,-0.001,0.095,-0.010,-0.003,-0.010,-0.003,0.113
1.229,-0.015,-0.008,-0.000,0.000,0.000,0.000,0.000,0.000,0.000,-0.001,-0.001,0.000,0.095,-0.010,-0.003,-0.010,-0.003,0.119
1.254,-0.015,-0.007,-0.010,0.000,0.000,0.000,0.000,0.000,0.000,-0.001,-0.001,0.000,0.095,-0.010,-0.003,-0.010,-0.003,0.117
1.279,-0.013,-0.006,-0.020,0.000,0.000,0.000,0.000,0.000,0.000,-0.001,-0.001,0.001,0.095,-0.010,-0.003,-0.010,-0.003,0.112
1.305,-0.004,-0.007,-0.029,0.000,0.000,0.000,0.000,0.000,0.000,-0.002,-0.001,0.000,0.095,-0.010,-0.003,-0.010,-0.003,0.119
1.329,0.005,-0.007,-0.039,0.000,0.000,0.000,0.000,0.000,0.000,-0.001,-0.001,-0.001,0.095,-0.010,-0.003,-0.010,-0.003,0.119
1.354,0.006,0.002,-0.039,0.000,0.000,0.000,0.000,0.000,0.000,-0.001,0.000,0.000,0.095,-0.010,-0.003,-0.010,-0.003,0.130
1.381,0.005,-0.008,-0.039,0.000,0.000,0.000,0.000,0.000,0.000,-0.001,0.000,-0.001,0.095,-0.010,-0.003,-0.010,-0.003,0.125
1.406,-0.004,-0.006,-0.039,0.000,0.000,0.000,0.000,0.000,0.000,-0.002,-0.001,0.000,0.095,-0.010,-0.003,-0.010,-0.003,0.104
1.432,0.005,-0.006,-0.059,0.000,0.000,0.000,0.000,0.000,0.000,-0.001,0.000,-0.001,0.095,-0.010,-0.003,-0.010,-0.003,0.099
1.457,0.005,-0.006,-0.039,0.000,0.000,0.000,0.000,0.000,0.000,0.000,0.000,0.000,0.095,-0.010,-0.003,-0.010,-0.003,0.071
1.485,-0.004,-0.005,-0.059,0.000,0.000,0.000,0.000,0.000,0.000,-0.001,-0.001,-0.001,0.095,-0.010,-0.003,-0.010,-0.003,0.077
1.512,-0.013,-0.004,-0.039,0.000,0.000,0.000,0.000,0.000,0.000,-0.001,-0.001,-0.001,0.095,-0.010,-0.003,-0.010,-0.003,0.103
1.537,-0.003,-0.005,-0.049,0.000,0.000,0.000,0.000,0.000,0.000,-0.001,-0.001,0.000,0.095,-0.010,-0.003,-0.009,-0.003,0.105
1.564,-0.003,-0.004,-0.069,0.000,0.000,0.000,0.000,0.000,0.000,-0.001,-0.001,-0.001,0.095,-0.010,-0.003,-0.009,-0.003,0.112
1.590,-0.003,-0.004,-0.059,0.000,0.000,0.000,0.000,0.000,0.000,-0.001,-0.001,-0.001,0.095,-0.010,-0.003,-0.009,-0.003,0.106
1.617,0.007,-0.004,-0.078,0.000,0.000,0.000,0.000,0.000,0.000,-0.001,-0.001,-0.001,0.095,-0.010,-0.003,-0.009,-0.003,0.092
1.643,0.008,0.005,-0.078,0.000,0.000,0.000,0.000,0.000,0.000,-0.001,0.000,-0.001,0.095,-0.010,-0.003,-0.009,-0.003,0.107
1.669,0.048,0.010,-0.078,0.000,0.000,0.000,0.000,0.000,0.000,-0.002,0.000,-0.001,0.095,-0.010,-0.003,-0.009,-0.003,0.119
1.695,0.051,-0.015,-0.088,0.000,0.000,0.000,0.000,0.000,0.000,-0.002,0.000,-0.001,0.095,-0.010,-0.003,-0.010,-0.004,0.148
1.722,-0.015,-0.005,-0.039,0.000,0.000,0.000,0.000,0.000,0.000,-0.002,0.000,-0.002,0.095,-0.010,-0.003,-0.010,-0.003,0.141
1.748,-0.014,0.005,-0.078,0.000,0.000,0.000,0.000,0.000,0.000,-0.002,-0.001,0.000,0.095,-0.010,-0.003,-0.010,-0.003,0.133
1.773,0.015,0.010,-0.108,0.000,0.000,0.000,0.000,0.000,0.000,0.001,-0.001,0.001,0.095,-0.010,-0.003,-0.010,-0.004,0.115
1.799,-0.006,-0.006,-0.088,0.000,0.000,0.000,0.000,0.000,0.000,-0.001,0.000,-0.001,0.095,-0.010,-0.003,-0.010,-0.004,0.120
1.825,-0.006,-0.006,-0.098,0.000,0.000,0.000,0.000,0.000,0.000,-0.001,-0.001,0.000,0.095,-0.010,-0.003,-0.010,-0.004,0.147
1.852,-0.006,-0.005,-0.098,0.000,0.000,0.000,0.000,0.000,0.000,-0.001,0.000,-0.001,0.095,-0.010,-0.003,-0.010,-0.004,0.132
1.877,-0.006,-0.005,-0.088,0.000,0.000,0.000,0.000,0.000,0.000,-0.001,-0.001,0.000,0.095,-0.010,-0.003,-0.010,-0.004,0.144
1.904,-0.006,-0.005,-0.088,0.000,0.000,0.000,0.000,0.000,0.000,-0.001,-0.001,-0.001,0.095,-0.010,-0.003,-0.010,-0.004,0.140
1.929,0.012,-0.007,-0.127,0.000,0.000,0.000,0.000,0.000,0.000,-0.002,0.000,-0.002,0.095,-0.010,-0.003,-0.010,-0.004,0.150
1.956,-0.005,0.005,-0.127,0.000,0.000,0.000,0.000,0.000,0.000,0.000,-0.001,-0.002,0.095,-0.010,-0.003,-0.010,-0.004,0.161
1.981,0.011,-0.017,-0.108,0.000,0.000,0.000,0.000,0.000,0.000,0.000,-0.001,-0.002,0.095,-0.010,-0.003,-0.010,-0.004,0.161
2.008,0.013,0.002,-0.147,0.000,0.000,0.000,0.000,0.000,0.000,-0.002,0.000,-0.002,0.095,-0.010,-0.003,-0.010,-0.004,0.142
2.035,-0.016,-0.003,-0.128,-0.000,-0.000,-0.001,-0.000,-0.000,-0.000,-0.002,0.000,-0.001,0.095,-0.010,-0.003,-0.010,-0.004,0.119
2.061,-0.006,-0.005,-0.108,-0.000,-0.000,-0.001,-0.000,-0.000,-0.000,-0.002,-0.001,-0.001,0.095,-0.010,-0.003,-0.010,-0.004,0.097
2.088,0.030,-0.008,-0.000,-0.000,-0.000,-0.002,-0.000,-0.000,-0.000,-0.001,-0.001,-0.001,0.095,-0.010,-0.003,-0.010,-0.004,0.104
2.114,-0.008,-0.004,0.029,0.000,-0.000,-0.003,-0.000,-0.000,-0.000,-0.002,0.000,-0.002,0.095,-0.010,-0.003,-0.009,-0.004,0.106
2.141,0.011,-0.005,0.010,0.000,-0.000,-0.003,0.000,-0.000,-0.000,-0.001,-0.001,-0.001,0.095,-0.010,-0.003,-0.009,-0.004,0.102
2.169,0.010,-0.005,0.010,0.000,-0.000,-0.004,0.000,-0.000,-0.000,-0.002,0.000,-0.002,0.095,-0.010,-0.003,-0.009,-0.004,0.111
2.195,-0.017,-0.002,0.019,0.000,-0.000,-0.004,0.000,-0.000,-0.000,-0.004,0.000,-0.001,0.095,-0.010,-0.003,-0.009,-0.004,0.118
2.221,0.012,-0.005,-0.039,0.000,-0.000,-0.005,0.000,-0.000,-0.001,0.000,-0.001,-0.001,0.095,-0.010,-0.003,-0.009,-0.004,0.123
2.247,0.020,-0.005,-0.020,0.001,-0.000,-0.005,0.000,-0.000,-0.001,-0.001,0.000,-0.001,0.095,-0.010,-0.003,-0.009,-0.004,0.150
2.275,0.009,-0.004,-0.059,0.001,-0.000,-0.006,0.000,-0.000,-0.001,-0.005,0.002,-0.002,0.095,-0.010,-0.003,-0.009,-0.004,0.137
2.300,-0.012,-0.012,0.039,0.001,-0.001,-0.006,0.000,-0.000,-0.001,0.001,-0.001,-0.001,0.095,-0.010,-0.003,-0.009,-0.004,0.138
2.326,-0.037,-0.006,0.029,0.001,-0.001,-0.006,0.000,-0.000,-0.001,0.000,-0.002,0.000,0.095,-0.010,-0.003,-0.009,-0.004,0.158
2.351,-0.007,-0.001,-0.000,0.001,-0.001,-0.007,0.000,-0.000,-0.001,-0.002,-0.001,-0.001,0.095,-0.010,-0.003,-0.009,-0.004,0.117
2.376,0.001,-0.002,-0.020,0.001,-0.001,-0.007,0.000,-0.000,-0.001,-0.001,0.000,0.000,0.095,-0.010,-0.003,-0.009,-0.004,0.121
2.400,0.010,-0.003,-0.000,0.001,-0.001,-0.008,0.000,-0.000,-0.002,-0.001,-0.001,-0.001,0.095,-0.010,-0.003,-0.009,-0.004,0.144
2.425,-0.029,0.001,0.029,0.001,-0.001,-0.008,0.000,-0.000,-0.002,-0.001,-0.001,0.001,0.095,-0.010,-0.003,-0.009,-0.004,0.114
2.450,0.009,-0.002,-0.000,0.001,-0.001,-0.008,0.000,-0.000,-0.002,0.000,-0.002,0.000,0.095,-0.010,-0.003,-0.009,-0.004,0.114
2.474,-0.019,0.001,0.039,0.002,-0.001,-0.009,0.000,-0.000,-0.002,-0.004,0.000,-0.004,0.095,-0.010,-0.003,-0.009,-0.004,0.140
2.498,0.021,-0.003,-0.049,0.002,-0.001,-0.009,0.000,-0.000,-0.002,-0.001,-0.001,-0.001,0.095,-0.010,-0.003,-0.009,-0.004,0.116
2.524,-0.037,-0.014,0.029,0.002,-0.001,-0.009,0.000,-0.000,-0.003,-0.002,0.000,-0.004,0.095,-0.010,-0.004,-0.009,-0.004,0.135
2.548,0.505,0.167,-0.830,0.002,-0.001,-0.010,0.000,-0.000,-0.003,-0.032,0.022,-0.012,0.094,-0.010,-0.004,-0.009,-0.004,0.086
2.576,-0.122,-0.187,0.331,0.004,-0.001,-0.014,0.001,-0.000,-0.003,0.013,-0.007,-0.001,0.094,-0.010,-0.004,-0.009,-0.004,0.012
2.600,0.043,0.028,-0.029,0.005,-0.001,-0.015,0.001,-0.000,-0.004,0.004,-0.005,-0.002,0.094,-0.010,-0.004,-0.009,-0.005,-0.019
2.626,0.015,-0.010,-0.059,0.006,-0.001,-0.016,0.001,-0.000,-0.004,0.001,-0.001,0.002,0.094,-0.010,-0.004,-0.009,-0.005,-0.099
2.653,-0.051,0.033,-0.029,0.007,-0.001,-0.018,0.001,-0.000,-0.005,0.001,0.000,0.010,0.094,-0.010,-0.004,-0.009,-0.005,-0.091
2.682,-0.025,-0.022,0.049,0.007,-0.001,-0.019,0.001,-0.000,-0.005,0.001,-0.002,0.015,0.094,-0.010,-0.004,-0.009,-0.005,-0.082
2.713,-0.015,-0.001,-0.030,0.008,-0.001,-0.020,0.001,-0.000,-0.006,0.000,-0.002,0.018,0.094,-0.010,-0.004,-0.009,-0.005,-0.055
2.741,-0.005,0.010,-0.010,0.008,-0.001,-0.021,0.002,-0.000,-0.006,0.000,-0.002,0.018,0.094,-0.010,-0.003,-0.009,-0.005,-0.030
2.770,0.004,-0.000,0.029,0.009,-0.001,-0.021,0.002,-0.000,-0.007,-0.001,-0.001,0.026,0.094,-0.010,-0.003,-0.009,-0.005,-0.027
2.797,-0.041,0.026,-0.020,0.009,-0.001,-0.022,0.002,-0.001,-0.007,0.001,-0.001,0.029,0.094,-0.010,-0.003,-0.009,-0.004,-0.016
2.827,-0.002,-0.003,-0.000,0.009,-0.001,-0.023,0.002,-0.001,-0.008,0.000,0.000,0.046,0.094,-0.010,-0.002,-0.009,-0.004,-0.012
2.854,-0.008,-0.004,-0.000,0.009,-0.001,-0.023,0.003,-0.001,-0.009,0.000,-0.001,0.062,0.094,-0.010,-0.002,-0.009,-0.004,-0.025
2.883,-0.097,0.032,-0.020,0.009,-0.001,-0.024,0.003,-0.001,-0.009,0.000,-0.001,0.066,0.094,-0.010,-0.002,-0.010,-0.003,0.013
2.914,-0.027,0.012,-0.000,0.009,-0.001,-0.024,0.003,-0.001,-0.010,0.000,-0.001,0.095,0.094,-0.010,-0.000,-0.010,-0.003,0.030
2.943,0.060,-0.029,-0.010,0.009,-0.001,-0.024,0.003,-0.001,-0.011,-0.001,-0.001,0.104,0.094,-0.010,0.001,-0.010,-0.003,0.074
2.971,0.001,-0.007,-0.020,0.008,-0.001,-0.025,0.004,-0.001,-0.011,0.000,0.000,0.094,0.094,-0.010,0.003,-0.010,-0.003,0.068
2.998,0.009,-0.007,-0.000,0.008,-0.001,-0.025,0.004,-0.001,-0.012,0.000,-0.001,0.101,0.094,-0.010,0.004,-0.010,-0.003,0.062
3.029,-0.020,0.004,0.010,0.008,-0.001,-0.025,0.004,-0.001,-0.013,0.000,-0.001,0.106,0.094,-0.011,0.006,-0.010,-0.003,0.068
3.054,0.024,-0.007,-0.020,0.008,-0.001,-0.026,0.004,-0.001,-0.014,0.000,0.000,0.094,0.094,-0.011,0.008,-0.010,-0.004,0.050
3.080,-0.014,-0.004,-0.039,0.008,-0.001,-0.026,0.005,-0.001,-0.014,0.000,-0.001,0.093,0.094,-0.011,0.009,-0.010,-0.003,0.075
3.107,0.044,-0.009,0.010,0.008,-0.001,-0.026,0.005,-0.001,-0.015,0.000,-0.001,0.099,0.094,-0.011,0.012,-0.010,-0.003,0.084
3.132,0.085,-0.016,-0.020,0.008,-0.001,-0.026,0.005,-0.001,-0.016,0.000,-0.001,0.111,0.094,-0.011,0.014,-0.010,-0.003,0.097
3.158,-0.063,0.026,-0.000,0.008,-0.001,-0.027,0.005,-0.001,-0.016,0.000,0.000,0.098,0.094,-0.011,0.016,-0.010,-0.003,0.105
3.185,0.038,-0.043,-0.000,0.008,-0.001,-0.027,0.005,-0.001,-0.017,-0.001,-0.001,0.098,0.094,-0.011,0.017,-0.010,-0.003,0.110
3.212,0.035,-0.040,-0.040,0.009,-0.001,-0.027,0.006,-0.001,-0.018,-0.001,0.000,0.088,0.094,-0.011,0.021,-0.010,-0.003,0.113
3.237,-0.018,0.005,-0.000,0.009,-0.001,-0.027,0.006,-0.001,-0.018,-0.001,0.000,0.099,0.094,-0.011,0.022,-0.010,-0.003,0.117
3.265,-0.075,0.022,-0.010,0.009,-0.001,-0.028,0.006,-0.001,-0.019,-0.001,-0.001,0.086,0.094,-0.011,0.024,-0.010,-0.003,0.129
3.291,0.053,-0.013,0.010,0.009,-0.001,-0.028,0.006,-0.001,-0.020,-0.001,0.000,0.100,0.094,-0.011,0.028,-0.010,-0.003,0.131
3.317,0.004,-0.006,-0.010,0.009,-0.002,-0.028,0.007,-0.001,-0.021,0.000,0.000,0.104,0.094,-0.011,0.030,-0.010,-0.004,0.137
3.343,0.023,-0.009,0.010,0.009,-0.002,-0.028,0.007,-0.001,-0.021,-0.001,0.000,0.104,0.094,-0.011,0.031,-0.010,-0.004,0.132
3.369,0.003,-0.005,-0.030,0.010,-0.002,-0.028,0.007,-0.001,-0.022,-0.001,-0.001,0.110,0.094,-0.011,0.035,-0.010,-0.004,0.125
3.393,-0.013,0.015,-0.000,0.010,-0.002,-0.029,0.007,-0.001,-0.023,0.000,0.000,0.100,0.094,-0.011,0.037,-0.010,-0.004,0.125
3.417,0.033,-0.010,-0.010,0.010,-0.003,-0.029,0.008,-0.001,-0.024,-0.001,0.000,0.109,0.094,-0.011,0.039,-0.010,-0.004,0.135
3.442,0.045,-0.029,-0.000,0.010,-0.003,-0.029,0.008,-0.001,-0.024,0.000,-0.001,0.103,0.094,-0.011,0.041,-0.009,-0.004,0.149
3.468,-0.011,-0.002,-0.010,0.011,-0.003,-0.029,0.008,-0.001,-0.025,0.000,-0.002,0.095,0.094,-0.011,0.045,-0.009,-0.004,0.152
3.493,-0.042,0.014,-0.010,0.011,-0.003,-0.029,0.008,-0.001,-0.026,-0.001,-0.001,0.089,0.094,-0.011,0.047,-0.009,-0.004,0.158
3.518,0.004,-0.003,-0.010,0.011,-0.003,-0.030,0.009,-0.001,-0.026,0.000,-0.001,0.110,0.094,-0.011,0.049,-0.009,-0.005,0.157
3.544,-0.025,0.002,-0.010,0.011,-0.003,-0.030,0.009,-0.002,-0.027,-0.001,-0.001,0.100,0.094,-0.011,0.051,-0.009,-0.005,0.168
3.570,-0.014,0.001,-0.000,0.011,-0.004,-0.030,0.009,-0.002,-0.028,-0.001,-0.001,0.099,0.094,-0.011,0.055,-0.009,-0.004,0.176
3.598,0.030,-0.007,-0.010,0.012,-0.004,-0.030,0.010,-0.002,-0.029,-0.001,-0.001,0.098,0.094,-0.011,0.057,-0.009,-0.005,0.186
3.627,-0.006,0.010,-0.000,0.012,-0.004,-0.030,0.010,-0.002,-0.029,0.000,-0.001,0.105,0.094,-0.011,0.061,-0.009,-0.005,0.183
3.656,0.040,-0.008,0.000,0.012,-0.004,-0.031,0.010,-0.002,-0.031,0.000,-0.001,0.106,0.094,-0.011,0.063,-0.009,-0.005,0.188
3.684,-0.062,0.050,-0.020,0.012,-0.004,-0.031,0.011,-0.002,-0.031,0.000,-0.001,0.098,0.094,-0.011,0.065,-0.009,-0.004,0.206
3.711,0.055,-0.015,-0.010,0.012,-0.004,-0.031,0.011,-0.002,-0.032,0.001,-0.001,0.100,0.094,-0.011,0.069,-0.009,-0.004,0.214
3.736,0.032,-0.050,-0.020,0.012,-0.004,-0.032,0.011,-0.002,-0.033,0.000,-0.001,0.104,0.094,-0.011,0.071,-0.009,-0.005,0.222
3.761,0.028,-0.009,-0.010,0.013,-0.004,-0.032,0.011,-0.002,-0.034,0.000,0.000,0.098,0.094,-0.011,0.073,-0.009,-0.005,0.213
3.785,-0.013,-0.010,-0.010,0.013,-0.005,-0.032,0.012,-0.003,-0.034,0.000,-0.001,0.108,0.094,-0.011,0.077,-0.009,-0.005,0.213
3.812,-0.016,-0.001,-0.020,0.013,-0.005,-0.032,0.012,-0.003,-0.036,0.000,-0.001,0.100,0.094,-0.011,0.079,-0.009,-0.002,0.205
3.838,0.053,-0.025,-0.010,0.013,-0.005,-0.033,0.013,-0.003,-0.036,0.000,-0.001,0.109,0.094,-0.011,0.081,-0.008,-0.002,0.207
3.867,0.054,-0.001,0.010,0.013,-0.005,-0.033,0.013,-0.003,-0.037,-0.001,-0.001,0.090,0.094,-0.011,0.085,-0.008,-0.001,0.200
3.895,0.009,0.020,-0.000,0.014,-0.005,-0.033,0.013,-0.003,-0.038,0.000,-0.001,0.104,0.094,-0.011,0.087,-0.008,-0.000,0.184
3.924,0.074,-0.021,-0.000,0.014,-0.006,-0.033,0.014,-0.003,-0.039,-0.001,-0.001,0.099,0.094,-0.011,0.089,-0.008,-0.001,0.169
3.953,0.012,0.010,0.010,0.015,-0.006,-0.034,0.014,-0.003,-0.040,0.000,-0.001,0.093,0.094,-0.011,0.093,-0.008,-0.001,0.176
3.979,0.025,0.009,-0.000,0.016,-0.006,-0.034,0.015,-0.004,-0.041,0.000,-0.002,0.098,0.094,-0.011,0.095,-0.008,-0.001,0.179
4.008,0.047,-0.006,-0.000,0.016,-0.006,-0.034,0.015,-0.004,-0.042,0.001,0.000,0.114,0.094,-0.011,0.099,-0.008,-0.001,0.191
4.037,0.057,-0.008,-0.010,0.018,-0.006,-0.034,0.016,-0.004,-0.043,-0.001,-0.001,0.104,0.094,-0.011,0.101,-0.008,-0.001,0.198
4.064,-0.035,0.062,0.000,0.018,-0.006,-0.034,0.016,-0.004,-0.044,0.000,-0.002,0.105,0.094,-0.011,0.103,-0.008,-0.001,0.193
4.092,-0.005,0.015,0.029,0.019,-0.006,-0.034,0.017,-0.004,-0.045,0.000,0.000,0.109,0.094,-0.011,0.107,-0.008,-0.001,0.186
4.120,0.045,-0.014,0.049,0.020,-0.006,-0.034,0.017,-0.004,-0.046,0.000,0.000,0.120,0.094,-0.011,0.109,-0.008,-0.001,0.181
4.149,-0.001,0.035,0.039,0.020,-0.006,-0.034,0.017,-0.005,-0.046,0.000,-0.001,0.108,0.094,-0.011,0.113,-0.008,-0.001,0.179
4.177,0.071,-0.009,0.019,0.021,-0.006,-0.033,0.018,-0.005,-0.048,0.001,-0.001,0.108,0.094,-0.012,0.115,-0.008,-0.001,0.197
4.207,0.036,-0.012,0.019,0.022,-0.006,-0.033,0.019,-0.005,-0.048,0.000,-0.001,0.108,0.094,-0.012,0.120,-0.007,-0.001,0.215
4.234,-0.021,0.040,0.029,0.023,-0.006,-0.033,0.020,-0.005,-0.050,-0.001,0.000,0.100,0.094,-0.012,0.122,-0.008,-0.000,0.214
4.261,0.093,-0.023,0.009,0.024,-0.006,-0.032,0.020,-0.005,-0.050,0.000,-0.001,0.110,0.094,-0.012,0.124,-0.007,0.001,0.211
4.291,0.083,-0.029,0.009,0.025,-0.006,-0.032,0.021,-0.005,-0.051,-0.001,0.000,0.106,0.094,-0.012,0.128,-0.007,-0.000,0.204
4.318,0.085,-0.009,-0.000,0.027,-0.006,-0.032,0.022,-0.006,-0.052,0.000,-0.001,0.103,0.094,-0.012,0.130,-0.007,-0.000,0.203
4.347,-0.012,0.032,-0.010,0.027,-0.006,-0.031,0.022,-0.006,-0.053,-0.001,-0.001,0.105,0.094,-0.012,0.134,-0.007,0.000,0.214
4.375,0.045,0.010,0.019,0.029,-0.006,-0.031,0.023,-0.006,-0.054,0.000,0.000,0.104,0.094,-0.012,0.136,-0.007,0.000,0.213
4.402,0.050,0.008,0.029,0.030,-0.006,-0.031,0.024,-0.006,-0.055,0.000,-0.001,0.115,0.094,-0.012,0.138,-0.007,-0.000,0.205
4.430,0.009,0.028,0.039,0.031,-0.006,-0.030,0.024,-0.006,-0.055,-0.001,-0.001,0.109,0.094,-0.012,0.143,-0.007,0.000,0.215
4.458,0.074,0.004,0.029,0.033,-0.005,-0.030,0.026,-0.006,-0.057,0.000,0.000,0.103,0.094,-0.012,0.145,-0.007,0.000,0.205
4.488,0.062,-0.023,0.039,0.033,-0.005,-0.029,0.026,-0.006,-0.057,0.001,-0.001,0.104,0.094,-0.012,0.149,-0.007,-0.000,0.210
4.515,0.009,0.027,0.059,0.035,-0.005,-0.028,0.028,-0.007,-0.058,0.000,-0.001,0.103,0.094,-0.012,0.151,-0.007,0.000,0.205
4.544,0.097,-0.010,0.029,0.036,-0.005,-0.028,0.028,-0.007,-0.059,0.000,-0.002,0.111,0.094,-0.012,0.153,-0.007,0.001,0.198
4.572,0.102,-0.032,-0.000,0.038,-0.005,-0.027,0.030,-0.007,-0.060,0.000,-0.001,0.111,0.094,-0.012,0.157,-0.007,0.000,0.211
4.599,0.062,-0.005,-0.000,0.039,-0.005,-0.026,0.031,-0.007,-0.061,0.000,0.000,0.098,0.094,-0.012,0.159,-0.007,0.000,0.221
4.629,-0.038,0.059,0.020,0.040,-0.005,-0.026,0.032,-0.007,-0.061,0.000,0.000,0.122,0.094,-0.012,0.163,-0.007,0.001,0.220
4.658,0.011,0.030,0.010,0.042,-0.005,-0.025,0.033,-0.007,-0.062,0.000,-0.001,0.103,0.094,-0.012,0.166,-0.007,0.000,0.221
4.685,0.083,-0.016,-0.000,0.043,-0.005,-0.025,0.034,-0.007,-0.063,0.000,-0.001,0.112,0.094,-0.012,0.168,-0.007,-0.000,0.206
4.712,0.072,-0.013,0.029,0.045,-0.005,-0.024,0.036,-0.008,-0.064,0.000,-0.001,0.106,0.094,-0.012,0.172,-0.007,-0.001,0.206
4.739,0.076,-0.013,0.039,0.046,-0.005,-0.024,0.037,-0.008,-0.064,0.000,-0.001,0.099,0.094,-0.012,0.174,-0.007,-0.000,0.208
4.768,0.032,-0.013,0.019,0.047,-0.005,-0.023,0.038,-0.008,-0.065,0.000,-0.001,0.104,0.094,-0.012,0.178,-0.007,-0.000,0.220
4.796,-0.061,0.056,0.039,0.050,-0.005,-0.022,0.040,-0.008,-0.065,0.000,-0.002,0.088,0.094,-0.012,0.180,-0.007,0.001,0.221
4.824,0.097,-0.029,0.039,0.050,-0.005,-0.022,0.041,-0.008,-0.066,0.000,-0.002,0.114,0.094,-0.012,0.182,-0.007,0.001,0.234
4.851,0.093,-0.010,0.029,0.051,-0.004,-0.021,0.042,-0.008,-0.066,-0.001,-0.001,0.103,0.094,-0.012,0.186,-0.007,0.000,0.243
4.880,0.062,-0.020,0.019,0.054,-0.005,-0.020,0.044,-0.008,-0.067,-0.001,-0.001,0.097,0.094,-0.012,0.188,-0.007,0.001,0.239
4.909,0.050,-0.025,0.019,0.055,-0.005,-0.020,0.045,-0.008,-0.068,0.000,-0.001,0.098,0.094,-0.012,0.193,-0.006,0.002,0.260
4.938,0.053,0.015,-0.000,0.057,-0.005,-0.019,0.047,-0.009,-0.068,0.000,-0.001,0.100,0.094,-0.012,0.195,-0.006,0.002,0.264
4.966,0.120,-0.032,-0.020,0.058,-0.005,-0.018,0.048,-0.009,-0.069,0.000,-0.001,0.104,0.094,-0.012,0.199,-0.006,0.001,0.252
4.995,0.071,0.011,0.010,0.061,-0.005,-0.018,0.051,-0.009,-0.069,0.000,-0.001,0.103,0.094,-0.012,0.201,-0.006,0.001,0.243
5.023,0.085,-0.001,-0.000,0.062,-0.005,-0.017,0.052,-0.009,-0.070,0.000,-0.001,0.106,0.094,-0.012,0.203,-0.006,0.001,0.232
5.052,0.090,-0.011,0.039,0.065,-0.006,-0.017,0.054,-0.009,-0.070,0.000,0.000,0.108,0.094,-0.012,0.207,-0.006,0.001,0.233
5.080,-0.005,0.049,0.029,0.066,-0.006,-0.016,0.056,-0.009,-0.071,-0.001,-0.001,0.087,0.094,-0.013,0.209,-0.006,0.001,0.236
5.111,0.080,0.010,0.029,0.068,-0.006,-0.016,0.057,-0.010,-0.071,-0.001,0.000,0.116,0.094,-0.013,0.213,-0.006,0.002,0.236
5.138,0.104,-0.008,-0.000,0.070,-0.006,-0.015,0.060,-0.010,-0.072,-0.001,-0.001,0.111,0.094,-0.013,0.215,-0.006,0.002,0.252
5.166,0.093,-0.017,0.029,0.072,-0.006,-0.015,0.061,-0.010,-0.072,-0.001,-0.001,0.109,0.093,-0.013,0.219,-0.006,0.001,0.254
5.194,0.092,-0.008,-0.000,0.075,-0.006,-0.014,0.064,-0.010,-0.073,0.000,-0.002,0.120,0.093,-0.013,0.221,-0.006,0.000,0.274
5.221,0.037,0.020,0.019,0.076,-0.006,-0.014,0.066,-0.010,-0.073,-0.001,-0.001,0.111,0.093,-0.013,0.223,-0.006,0.001,0.285
5.250,0.104,-0.032,-0.000,0.077,-0.006,-0.014,0.067,-0.010,-0.073,-0.001,-0.001,0.105,0.093,-0.013,0.228,-0.006,0.000,0.309
5.279,0.082,-0.034,-0.010,0.080,-0.006,-0.013,0.070,-0.011,-0.074,-0.001,-0.002,0.108,0.093,-0.013,0.230,-0.006,0.000,0.317
5.307,0.088,-0.012,-0.000,0.082,-0.006,-0.013,0.072,-0.011,-0.074,-0.001,-0.001,0.099,0.093,-0.013,0.234,-0.005,0.001,0.317
5.333,0.070,0.005,-0.000,0.085,-0.007,-0.013,0.075,-0.011,-0.074,0.000,0.000,0.112,0.093,-0.013,0.236,-0.005,0.001,0.311
5.360,0.016,0.030,0.019,0.086,-0.007,-0.013,0.077,-0.011,-0.075,-0.001,-0.001,0.106,0.093,-0.013,0.238,-0.006,0.001,0.308
5.390,0.080,-0.010,0.039,0.087,-0.007,-0.012,0.079,-0.011,-0.075,0.001,-0.001,0.103,0.093,-0.013,0.243,-0.005,0.001,0.317
5.417,0.089,-0.002,0.029,0.090,-0.007,-0.012,0.082,-0.012,-0.075,0.000,-0.001,0.099,0.093,-0.013,0.245,-0.005,0.001,0.308
5.445,0.089,-0.005,0.029,0.092,-0.007,-0.012,0.084,-0.012,-0.076,0.000,-0.001,0.108,0.093,-0.013,0.247,-0.006,-0.000,0.323
5.472,0.082,-0.015,0.019,0.095,-0.007,-0.011,0.088,-0.012,-0.076,0.000,0.000,0.094,0.093,-0.013,0.251,-0.006,0.000,0.330
5.499,0.010,0.033,0.010,0.096,-0.007,-0.011,0.090,-0.012,-0.076,0.000,-0.001,0.094,0.093,-0.013,0.253,-0.006,-0.000,0.330
5.528,0.098,-0.041,0.019,0.097,-0.008,-0.010,0.092,-0.012,-0.077,-0.001,0.000,0.103,0.093,-0.013,0.257,-0.006,-0.001,0.342
5.555,0.024,0.007,0.010,0.100,-0.008,-0.010,0.096,-0.013,-0.077,0.000,-0.001,0.101,0.093,-0.013,0.259,-0.006,-0.001,0.344
5.583,0.074,-0.040,0.010,0.101,-0.008,-0.009,0.098,-0.013,-0.077,0.000,0.000,0.106,0.093,-0.013,0.261,-0.005,-0.000,0.341
5.610,0.002,0.045,0.000,0.102,-0.008,-0.009,0.100,-0.013,-0.077,0.000,0.000,0.111,0.093,-0.013,0.265,-0.006,-0.000,0.343
5.637,0.025,0.045,0.020,0.105,-0.008,-0.009,0.104,-0.013,-0.078,0.000,0.000,0.112,0.093,-0.013,0.268,-0.006,-0.000,0.350
5.665,0.095,-0.002,0.029,0.106,-0.008,-0.008,0.106,-0.013,-0.078,-0.001,0.000,0.101,0.093,-0.013,0.272,-0.006,0.000,0.373
5.692,0.088,-0.012,0.029,0.108,-0.008,-0.008,0.110,-0.014,-0.078,0.000,-0.001,0.103,0.093,-0.013,0.274,-0.006,-0.000,0.372
5.718,0.073,-0.029,0.010,0.109,-0.008,-0.007,0.112,-0.014,-0.078,0.000,-0.001,0.108,0.093,-0.013,0.276,-0.006,-0.001,0.380
5.747,0.064,-0.025,0.010,0.111,-0.008,-0.007,0.115,-0.014,-0.079,0.000,0.000,0.106,0.093,-0.013,0.280,-0.006,-0.001,0.371
5.774,0.035,0.017,0.020,0.113,-0.008,-0.006,0.119,-0.014,-0.079,0.000,0.000,0.105,0.093,-0.013,0.282,-0.006,-0.001,0.364
5.803,0.063,-0.027,0.029,0.114,-0.008,-0.006,0.121,-0.014,-0.079,0.000,0.000,0.108,0.093,-0.013,0.284,-0.006,-0.002,0.390
5.831,0.063,-0.027,-0.000,0.115,-0.008,-0.006,0.124,-0.015,-0.079,-0.001,-0.001,0.100,0.093,-0.013,0.289,-0.006,-0.002,0.395
5.858,0.044,-0.007,-0.000,0.117,-0.008,-0.005,0.128,-0.015,-0.079,-0.001,0.000,0.099,0.093,-0.013,0.291,-0.006,-0.003,0.390
5.887,-0.010,0.035,-0.010,0.118,-0.008,-0.005,0.131,-0.015,-0.079,0.000,0.000,0.117,0.093,-0.013,0.295,-0.006,-0.002,0.401
5.913,0.045,-0.001,0.010,0.120,-0.009,-0.004,0.135,-0.015,-0.080,-0.001,0.000,0.106,0.093,-0.013,0.297,-0.006,-0.003,0.403
5.939,0.054,-0.005,-0.000,0.121,-0.009,-0.004,0.138,-0.016,-0.080,0.000,-0.001,0.112,0.093,-0.013,0.299,-0.006,-0.003,0.403
5.967,0.053,0.004,0.019,0.122,-0.009,-0.004,0.140,-0.016,-0.080,-0.001,-0.001,0.097,0.093,-0.013,0.303,-0.007,-0.003,0.413
5.994,0.041,-0.013,0.019,0.124,-0.009,-0.004,0.145,-0.016,-0.080,-0.001,-0.001,0.101,0.093,-0.013,0.305,-0.007,-0.004,0.412
6.022,-0.021,-0.008,0.029,0.125,-0.009,-0.003,0.148,-0.016,-0.080,0.000,-0.002,0.094,0.093,-0.013,0.307,-0.007,-0.004,0.424
6.051,0.033,-0.001,-0.000,0.126,-0.009,-0.003,0.150,-0.017,-0.080,-0.001,-0.001,0.098,0.093,-0.013,0.311,-0.007,-0.004,0.439
6.078,0.059,-0.024,0.010,0.128,-0.010,-0.002,0.155,-0.017,-0.080,0.000,-0.001,0.110,0.093,-0.013,0.313,-0.007,-0.005,0.437
6.105,0.010,-0.012,0.009,0.129,-0.010,-0.002,0.158,-0.017,-0.080,0.000,-0.001,0.103,0.093,-0.013,0.316,-0.007,-0.005,0.444
6.132,0.047,-0.040,0.010,0.130,-0.010,-0.002,0.163,-0.017,-0.080,0.000,-0.001,0.105,0.093,-0.013,0.320,-0.007,-0.005,0.445
6.158,0.015,-0.033,-0.010,0.131,-0.010,-0.002,0.166,-0.018,-0.080,-0.001,-0.001,0.105,0.093,-0.013,0.322,-0.006,-0.005,0.450
6.187,0.024,-0.015,-0.000,0.131,-0.010,-0.001,0.168,-0.018,-0.080,-0.001,-0.001,0.094,0.093,-0.013,0.326,-0.006,-0.005,0.460
6.213,0.030,-0.020,-0.000,0.133,-0.011,-0.001,0.174,-0.018,-0.080,-0.001,-0.001,0.105,0.093,-0.013,0.328,-0.007,-0.005,0.468
6.240,-0.004,0.058,0.029,0.133,-0.011,-0.001,0.176,-0.019,-0.080,0.000,0.000,0.104,0.093,-0.013,0.330,-0.007,-0.005,0.477
6.270,0.034,-0.018,0.019,0.134,-0.011,-0.001,0.179,-0.019,-0.080,0.000,-0.001,0.104,0.093,-0.014,0.334,-0.007,-0.005,0.486
6.297,0.002,-0.012,-0.000,0.135,-0.011,-0.000,0.184,-0.019,-0.080,-0.001,-0.001,0.099,0.093,-0.014,0.336,-0.007,-0.005,0.483
6.324,0.018,-0.020,-0.000,0.136,-0.012,-0.000,0.187,-0.019,-0.080,-0.001,0.000,0.117,0.093,-0.014,0.338,-0.007,-0.005,0.471
6.352,0.016,-0.038,0.039,0.136,-0.012,0.000,0.192,-0.020,-0.080,0.000,-0.001,0.112,0.093,-0.014,0.343,-0.007,-0.005,0.477
6.378,0.020,-0.030,0.010,0.137,-0.012,0.000,0.195,-0.020,-0.080,0.000,-0.001,0.110,0.093,-0.014,0.345,-0.007,-0.006,0.494
6.406,0.014,-0.035,0.010,0.137,-0.012,0.001,0.198,-0.020,-0.080,0.000,0.000,0.109,0.093,-0.014,0.349,-0.007,-0.006,0.512
6.432,-0.007,-0.011,0.009,0.138,-0.013,0.001,0.203,-0.021,-0.080,-0.001,0.000,0.108,0.093,-0.014,0.351,-0.007,-0.006,0.519
6.458,0.024,-0.017,0.010,0.138,-0.013,0.001,0.206,-0.021,-0.080,0.000,0.000,0.101,0.093,-0.014,0.353,-0.006,-0.006,0.510
6.484,-0.004,0.030,-0.000,0.139,-0.013,0.002,0.209,-0.021,-0.080,-0.001,-0.001,0.093,0.093,-0.014,0.355,-0.007,-0.006,0.518
6.511,0.057,-0.061,-0.010,0.139,-0.013,0.002,0.212,-0.022,-0.080,0.000,-0.001,0.101,0.093,-0.014,0.360,-0.007,-0.006,0.507
6.540,0.031,-0.000,0.029,0.140,-0.014,0.002,0.217,-0.022,-0.080,-0.001,-0.001,0.101,0.093,-0.014,0.362,-0.006,-0.006,0.523
6.566,0.019,-0.016,0.019,0.140,-0.014,0.002,0.220,-0.022,-0.080,0.000,-0.001,0.099,0.093,-0.014,0.366,-0.006,-0.006,0.539
6.595,0.032,0.008,-0.010,0.141,-0.015,0.003,0.226,-0.023,-0.080,-0.001,0.000,0.117,0.093,-0.014,0.368,-0.007,-0.007,0.541
6.623,-0.030,0.057,0.009,0.141,-0.015,0.003,0.228,-0.023,-0.080,-0.001,-0.002,0.103,0.093,-0.014,0.370,-0.007,-0.007,0.548
6.650,0.024,-0.000,0.020,0.142,-0.015,0.003,0.231,-0.024,-0.080,0.000,-0.002,0.106,0.093,-0.014,0.374,-0.007,-0.007,0.535
6.677,0.046,-0.047,0.010,0.142,-0.016,0.003,0.237,-0.024,-0.080,0.000,-0.001,0.108,0.093,-0.014,0.377,-0.007,-0.008,0.552
6.706,0.020,0.004,0.020,0.143,-0.016,0.004,0.240,-0.025,-0.080,0.000,-0.002,0.109,0.093,-0.014,0.381,-0.007,-0.008,0.550
6.732,0.033,-0.038,0.010,0.143,-0.016,0.004,0.246,-0.025,-0.080,0.001,-0.001,0.111,0.093,-0.014,0.383,-0.007,-0.007,0.545
6.759,0.009,-0.001,0.019,0.144,-0.016,0.004,0.248,-0.026,-0.080,0.000,-0.001,0.101,0.093,-0.014,0.385,-0.007,-0.007,0.552
6.787,0.032,-0.038,0.020,0.144,-0.017,0.004,0.251,-0.026,-0.079,-0.001,-0.002,0.100,0.093,-0.014,0.389,-0.007,-0.007,0.557
6.813,-0.033,-0.008,0.009,0.144,-0.017,0.005,0.257,-0.027,-0.079,0.000,-0.001,0.103,0.093,-0.014,0.391,-0.006,-0.007,0.555
6.841,0.024,-0.040,0.010,0.145,-0.017,0.005,0.260,-0.027,-0.079,0.000,-0.001,0.103,0.093,-0.014,0.394,-0.006,-0.008,0.541
6.868,-0.037,-0.026,0.019,0.145,-0.018,0.005,0.263,-0.027,-0.079,0.000,-0.001,0.126,0.093,-0.014,0.398,-0.006,-0.008,0.559
6.894,-0.055,0.065,0.009,0.145,-0.018,0.006,0.269,-0.028,-0.079,0.000,-0.001,0.106,0.093,-0.014,0.400,-0.006,-0.008,0.546
6.920,0.014,0.010,0.020,0.145,-0.018,0.006,0.272,-0.028,-0.079,0.000,-0.001,0.114,0.093,-0.014,0.402,-0.006,-0.008,0.557
6.947,0.034,-0.014,-0.000,0.145,-0.019,0.006,0.274,-0.029,-0.079,0.000,0.000,0.101,0.093,-0.014,0.406,-0.006,-0.008,0.566
6.974,0.011,-0.022,0.010,0.146,-0.019,0.007,0.280,-0.029,-0.078,0.000,0.000,0.104,0.093,-0.014,0.408,-0.006,-0.009,0.588
7.000,-0.056,0.058,-0.001,0.146,-0.019,0.007,0.283,-0.030,-0.078,0.000,0.000,0.093,0.093,-0.014,0.411,-0.006,-0.008,0.605
7.029,0.035,-0.053,0.010,0.146,-0.019,0.007,0.286,-0.030,-0.078,0.000,-0.001,0.097,0.092,-0.014,0.415,-0.006,-0.008,0.624
7.057,0.061,-0.054,0.020,0.146,-0.020,0.008,0.292,-0.031,-0.078,0.000,0.000,0.112,0.092,-0.014,0.417,-0.007,-0.008,0.636
7.084,0.013,-0.017,0.009,0.147,-0.020,0.008,0.295,-0.031,-0.078,0.000,-0.001,0.100,0.092,-0.014,0.419,-0.007,-0.008,0.634
7.111,-0.029,0.025,-0.001,0.147,-0.020,0.008,0.298,-0.032,-0.077,0.001,-0.001,0.106,0.092,-0.014,0.423,-0.007,-0.008,0.640
7.138,-0.046,0.076,0.019,0.147,-0.020,0.009,0.304,-0.033,-0.077,0.000,-0.001,0.097,0.092,-0.014,0.425,-0.007,-0.008,0.632
7.168,-0.018,0.041,0.029,0.147,-0.020,0.009,0.307,-0.033,-0.077,0.000,-0.001,0.099,0.092,-0.014,0.429,-0.007,-0.008,0.620
7.194,0.002,0.002,0.019,0.147,-0.020,0.009,0.313,-0.034,-0.077,-0.001,-0.001,0.108,0.092,-0.014,0.431,-0.007,-0.008,0.628
7.219,-0.000,-0.033,0.019,0.147,-0.020,0.010,0.316,-0.034,-0.076,0.000,-0.001,0.106,0.092,-0.015,0.434,-0.007,-0.008,0.644
7.246,-0.007,-0.025,0.019,0.147,-0.020,0.010,0.318,-0.035,-0.076,0.000,0.000,0.104,0.092,-0.015,0.436,-0.007,-0.008,0.645
7.270,0.012,-0.015,0.029,0.147,-0.020,0.010,0.321,-0.035,-0.076,-0.001,-0.001,0.098,0.092,-0.015,0.440,-0.007,-0.008,0.661
7.296,0.018,-0.033,0.009,0.147,-0.020,0.011,0.327,-0.036,-0.076,0.000,-0.001,0.110,0.092,-0.015,0.442,-0.006,-0.007,0.673
7.321,0.005,0.013,-0.010,0.147,-0.020,0.011,0.330,-0.036,-0.075,0.000,-0.001,0.092,0.092,-0.015,0.444,-0.007,-0.007,0.654
7.350,0.044,-0.065,0.019,0.147,-0.020,0.012,0.333,-0.037,-0.075,-0.001,0.000,0.104,0.092,-0.015,0.448,-0.007,-0.007,0.664
7.380,-0.024,-0.023,-0.001,0.147,-0.020,0.012,0.339,-0.037,-0.075,-0.001,-0.001,0.111,0.092,-0.015,0.450,-0.006,-0.008,0.675
7.406,0.010,-0.024,0.009,0.147,-0.020,0.012,0.342,-0.038,-0.074,0.000,-0.001,0.108,0.092,-0.015,0.454,-0.006,-0.008,0.674
7.431,-0.042,0.068,0.009,0.147,-0.020,0.013,0.345,-0.038,-0.074,0.000,0.000,0.123,0.092,-0.015,0.457,-0.006,-0.008,0.701
7.456,0.014,-0.013,-0.000,0.147,-0.021,0.013,0.351,-0.039,-0.074,0.000,0.000,0.105,0.092,-0.015,0.459,-0.006,-0.008,0.706
7.480,-0.034,0.016,0.038,0.147,-0.021,0.013,0.354,-0.039,-0.073,0.000,0.000,0.103,0.092,-0.015,0.461,-0.006,-0.008,0.681
7.505,0.017,-0.014,0.039,0.146,-0.021,0.014,0.357,-0.040,-0.073,0.000,0.000,0.112,0.092,-0.015,0.463,-0.006,-0.008,0.699
7.530,0.003,-0.014,0.049,0.146,-0.021,0.014,0.360,-0.040,-0.073,0.000,-0.001,0.105,0.092,-0.015,0.467,-0.006,-0.008,0.685
7.556,-0.061,0.051,0.028,0.146,-0.021,0.015,0.365,-0.041,-0.072,0.000,0.000,0.093,0.092,-0.015,0.469,-0.006,-0.007,0.685
7.579,0.017,-0.039,0.019,0.146,-0.021,0.015,0.368,-0.042,-0.072,0.000,0.000,0.116,0.092,-0.015,0.471,-0.006,-0.007,0.719
7.604,-0.008,0.032,0.039,0.146,-0.021,0.016,0.371,-0.042,-0.072,-0.001,0.000,0.108,0.092,-0.015,0.474,-0.006,-0.007,0.735
7.629,0.023,-0.035,0.049,0.146,-0.022,0.016,0.374,-0.042,-0.071,-0.001,0.000,0.108,0.092,-0.015,0.478,-0.006,-0.007,0.721
7.654,-0.011,-0.040,0.019,0.146,-0.022,0.017,0.380,-0.043,-0.071,0.000,-0.001,0.106,0.092,-0.015,0.480,-0.006,-0.007,0.739
7.678,0.010,-0.029,0.029,0.146,-0.022,0.018,0.383,-0.044,-0.070,0.001,0.000,0.103,0.092,-0.015,0.482,-0.006,-0.007,0.715
7.703,-0.003,0.060,0.009,0.146,-0.022,0.018,0.386,-0.044,-0.070,0.000,-0.001,0.092,0.092,-0.015,0.484,-0.006,-0.007,0.739
7.728,0.021,-0.026,0.039,0.146,-0.023,0.019,0.389,-0.045,-0.070,-0.001,-0.001,0.106,0.092,-0.015,0.489,-0.006,-0.008,0.791
7.753,-0.007,-0.037,0.029,0.146,-0.023,0.020,0.395,-0.046,-0.069,0.000,-0.001,0.115,0.092,-0.015,0.491,-0.005,-0.008,0.785
7.777,-0.002,-0.016,0.078,0.146,-0.023,0.020,0.398,-0.046,-0.068,0.000,-0.001,0.104,0.092,-0.015,0.493,-0.005,-0.008,0.818
7.801,-0.018,0.030,0.068,0.146,-0.023,0.021,0.400,-0.046,-0.068,0.001,-0.001,0.103,0.092,-0.015,0.495,-0.005,-0.008,0.838
7.828,0.028,-0.020,0.059,0.145,-0.024,0.022,0.403,-0.047,-0.068,0.000,0.000,0.105,0.092,-0.015,0.499,-0.005,-0.008,0.813
7.854,0.024,-0.045,0.049,0.145,-0.024,0.023,0.409,-0.048,-0.067,0.000,-0.001,0.117,0.092,-0.015,0.501,-0.005,-0.007,0.816
7.880,0.005,0.016,0.039,0.145,-0.024,0.024,0.412,-0.048,-0.066,0.000,-0.002,0.109,0.092,-0.015,0.503,-0.006,-0.007,0.844
7.908,0.023,-0.047,0.058,0.145,-0.024,0.025,0.415,-0.049,-0.066,0.001,-0.001,0.108,0.092,-0.015,0.508,-0.006,-0.007,0.854
7.935,-0.020,-0.028,-0.000,0.145,-0.025,0.026,0.421,-0.050,-0.065,-0.002,-0.001,0.109,0.092,-0.015,0.510,-0.005,-0.007,0.875
7.960,-0.003,-0.046,-0.010,0.145,-0.025,0.027,0.424,-0.050,-0.064,0.000,-0.002,0.109,0.092,-0.015,0.512,-0.005,-0.008,0.919
7.987,-0.008,0.074,-0.020,0.145,-0.025,0.028,0.427,-0.051,-0.064,0.000,-0.001,0.112,0.092,-0.015,0.516,-0.005,-0.008,0.931
8.014,0.012,-0.036,-0.009,0.145,-0.025,0.029,0.432,-0.052,-0.062,0.000,0.000,0.112,0.092,-0.015,0.519,-0.005,-0.007,0.947
8.040,0.014,-0.052,0.000,0.145,-0.026,0.029,0.435,-0.052,-0.062,0.000,-0.001,0.112,0.092,-0.015,0.521,-0.005,-0.008,0.944
8.069,0.005,-0.023,-0.029,0.145,-0.026,0.029,0.438,-0.053,-0.061,0.000,-0.001,0.095,0.092,-0.015,0.525,-0.005,-0.008,0.979
8.096,0.012,0.018,0.010,0.146,-0.026,0.030,0.444,-0.054,-0.060,0.001,-0.001,0.098,0.092,-0.015,0.527,-0.005,-0.008,1.005
8.123,-0.024,0.037,0.009,0.146,-0.026,0.030,0.447,-0.054,-0.059,0.000,-0.001,0.100,0.092,-0.015,0.529,-0.005,-0.008,1.023
8.152,-0.005,0.076,0.009,0.146,-0.027,0.031,0.453,-0.055,-0.058,0.000,-0.001,0.099,0.092,-0.015,0.533,-0.005,-0.008,1.015
8.177,0.024,-0.044,-0.009,0.146,-0.027,0.031,0.456,-0.056,-0.058,0.000,-0.001,0.115,0.092,-0.015,0.536,-0.005,-0.007,1.005
8.204,0.009,-0.038,0.010,0.146,-0.027,0.031,0.459,-0.057,-0.057,0.000,-0.001,0.109,0.092,-0.015,0.538,-0.005,-0.007,1.045
8.231,-0.019,-0.031,0.010,0.146,-0.027,0.031,0.462,-0.057,-0.056,0.000,-0.001,0.104,0.092,-0.015,0.542,-0.005,-0.007,1.046
8.258,-0.000,0.097,0.009,0.146,-0.028,0.032,0.467,-0.058,-0.055,0.000,-0.001,0.098,0.092,-0.015,0.544,-0.005,-0.008,1.054
8.286,-0.003,-0.015,0.000,0.146,-0.028,0.032,0.470,-0.059,-0.054,0.000,-0.001,0.105,0.092,-0.016,0.548,-0.005,-0.008,1.088
8.313,0.001,-0.022,0.010,0.146,-0.028,0.032,0.476,-0.060,-0.053,-0.001,-0.001,0.120,0.092,-0.016,0.550,-0.005,-0.008,1.119
8.340,-0.013,-0.017,-0.010,0.146,-0.028,0.032,0.479,-0.060,-0.053,0.000,-0.001,0.111,0.092,-0.016,0.552,-0.005,-0.008,1.149
8.368,0.001,0.048,-0.000,0.146,-0.028,0.032,0.482,-0.061,-0.052,0.001,-0.001,0.110,0.092,-0.016,0.557,-0.005,-0.008,1.172
8.394,0.004,-0.041,0.010,0.146,-0.028,0.033,0.488,-0.062,-0.051,0.000,-0.001,0.101,0.092,-0.016,0.559,-0.005,-0.008,1.223
8.421,0.003,-0.010,0.030,0.146,-0.028,0.033,0.491,-0.063,-0.050,0.001,0.000,0.109,0.092,-0.016,0.561,-0.005,-0.008,1.228
8.447,-0.003,0.036,0.029,0.146,-0.028,0.033,0.494,-0.063,-0.049,-0.001,0.000,0.098,0.092,-0.016,0.565,-0.005,-0.008,1.282
8.473,-0.035,0.025,0.078,0.146,-0.029,0.033,0.499,-0.064,-0.048,0.000,-0.005,0.090,0.092,-0.016,0.567,-0.005,-0.007,1.341
8.500,-0.011,-0.030,0.010,0.146,-0.029,0.034,0.502,-0.065,-0.047,0.001,-0.002,0.099,0.092,-0.016,0.569,-0.005,-0.007,1.322
8.527,0.005,-0.051,0.030,0.146,-0.029,0.034,0.505,-0.065,-0.047,0.001,0.000,0.106,0.092,-0.016,0.574,-0.005,-0.008,1.364
8.553,-0.012,-0.060,0.020,0.146,-0.029,0.035,0.511,-0.067,-0.045,0.000,0.001,0.128,0.092,-0.016,0.576,-0.005,-0.008,1.357
8.576,0.009,0.025,0.010,0.146,-0.029,0.035,0.514,-0.067,-0.045,0.000,0.001,0.109,0.092,-0.016,0.578,-0.005,-0.008,1.362
8.599,-0.011,-0.017,0.000,0.146,-0.029,0.035,0.517,-0.068,-0.044,0.000,0.001,0.117,0.092,-0.016,0.580,-0.004,-0.008,1.421
8.624,-0.009,-0.036,-0.019,0.146,-0.029,0.036,0.520,-0.068,-0.043,0.000,0.000,0.110,0.092,-0.016,0.582,-0.004,-0.008,1.488
8.648,-0.022,0.011,-0.020,0.145,-0.029,0.036,0.523,-0.069,-0.042,0.000,-0.001,0.108,0.092,-0.016,0.587,-0.004,-0.008,1.515
8.673,0.043,0.029,-0.010,0.145,-0.029,0.036,0.529,-0.070,-0.041,0.000,-0.001,0.105,0.092,-0.016,0.589,-0.005,-0.008,1.581
8.699,0.033,-0.000,0.020,0.145,-0.029,0.036,0.532,-0.071,-0.040,0.001,0.000,0.115,0.092,-0.016,0.591,-0.005,-0.008,1.588
8.724,0.043,0.061,-0.000,0.145,-0.029,0.036,0.534,-0.071,-0.040,0.000,-0.001,0.106,0.092,-0.016,0.593,-0.005,-0.007,1.662
8.748,-0.005,-0.054,0.000,0.146,-0.029,0.036,0.537,-0.072,-0.039,0.000,-0.001,0.104,0.092,-0.016,0.597,-0.005,-0.007,1.709
8.773,-0.005,0.028,-0.000,0.146,-0.030,0.037,0.543,-0.073,-0.037,0.000,-0.001,0.090,0.092,-0.016,0.599,-0.005,-0.008,1.691
8.799,0.007,-0.021,0.000,0.146,-0.030,0.037,0.546,-0.074,-0.037,-0.001,-0.001,0.106,0.092,-0.016,0.602,-0.005,-0.008,1.719
8.825,0.053,0.070,-0.010,0.146,-0.030,0.037,0.549,-0.074,-0.036,-0.001,-0.001,0.115,0.092,-0.016,0.606,-0.005,-0.008,1.688
8.851,-0.022,-0.033,0.010,0.146,-0.030,0.037,0.552,-0.075,-0.035,-0.001,0.000,0.112,0.092,-0.016,0.608,-0.005,-0.008,1.707
8.877,-0.028,-0.020,0.010,0.146,-0.030,0.037,0.558,-0.076,-0.034,-0.001,-0.001,0.120,0.092,-0.016,0.610,-0.005,-0.009,1.714
8.904,-0.006,-0.004,0.000,0.146,-0.030,0.037,0.561,-0.077,-0.033,0.000,-0.001,0.110,0.092,-0.016,0.612,-0.005,-0.009,1.686
8.931,-0.013,0.007,-0.000,0.146,-0.030,0.037,0.564,-0.077,-0.032,0.001,-0.001,0.110,0.092,-0.016,0.617,-0.004,-0.009,1.771
8.958,0.036,0.016,-0.019,0.146,-0.030,0.037,0.569,-0.078,-0.031,0.000,-0.001,0.104,0.092,-0.016,0.619,-0.005,-0.008,1.772
8.985,0.005,-0.029,-0.009,0.146,-0.030,0.037,0.572,-0.079,-0.030,0.001,-0.001,0.111,0.092,-0.016,0.621,-0.005,-0.008,1.927
9.012,-0.009,-0.056,0.020,0.146,-0.030,0.037,0.578,-0.080,-0.028,0.000,-0.001,0.114,0.092,-0.016,0.625,-0.005,-0.008,1.957
9.038,-0.026,-0.024,0.000,0.146,-0.030,0.037,0.581,-0.081,-0.028,0.000,-0.002,0.109,0.092,-0.016,0.628,-0.005,-0.009,1.967
9.065,-0.054,-0.032,0.010,0.146,-0.031,0.037,0.584,-0.081,-0.027,0.001,-0.001,0.104,0.092,-0.016,0.632,-0.005,-0.009,2.050
9.093,0.079,0.053,-0.010,0.146,-0.031,0.037,0.590,-0.083,-0.025,0.000,-0.001,0.098,0.092,-0.016,0.634,-0.005,-0.009,2.091
9.119,-0.055,-0.042,0.010,0.146,-0.031,0.037,0.593,-0.083,-0.025,-0.001,-0.001,0.110,0.092,-0.016,0.636,-0.004,-0.009,2.146
9.145,0.047,0.006,-0.000,0.146,-0.031,0.037,0.596,-0.084,-0.024,-0.001,-0.001,0.112,0.092,-0.016,0.641,-0.004,-0.009,2.210
9.172,0.011,0.036,-0.010,0.146,-0.032,0.037,0.602,-0.085,-0.022,0.001,0.000,0.105,0.092,-0.016,0.643,-0.004,-0.010,2.230
9.198,0.015,0.040,-0.020,0.146,-0.032,0.037,0.605,-0.086,-0.022,0.000,-0.001,0.108,0.092,-0.016,0.645,-0.004,-0.009,2.220
9.225,-0.014,0.001,-0.010,0.146,-0.032,0.037,0.608,-0.086,-0.021,0.000,-0.001,0.094,0.092,-0.016,0.649,-0.004,-0.009,2.190
9.252,-0.044,-0.033,0.000,0.146,-0.032,0.037,0.613,-0.088,-0.019,0.000,-0.001,0.114,0.092,-0.016,0.651,-0.005,-0.009,2.193
9.277,-0.007,0.001,-0.019,0.146,-0.032,0.037,0.616,-0.088,-0.019,0.000,-0.001,0.098,0.092,-0.016,0.654,-0.005,-0.009,2.242
9.304,0.006,0.030,-0.020,0.146,-0.032,0.037,0.619,-0.089,-0.018,-0.001,-0.002,0.110,0.092,-0.016,0.656,-0.005,-0.009,2.390
9.331,-0.038,-0.003,0.010,0.146,-0.032,0.037,0.622,-0.090,-0.017,0.000,-0.001,0.099,0.092,-0.016,0.660,-0.004,-0.009,2.387
9.359,-0.009,-0.004,0.000,0.146,-0.032,0.037,0.628,-0.091,-0.016,0.001,0.000,0.109,0.092,-0.017,0.662,-0.004,-0.009,2.426
9.386,0.043,0.055,-0.001,0.146,-0.032,0.036,0.631,-0.092,-0.015,0.000,0.000,0.109,0.092,-0.017,0.666,-0.004,-0.009,2.419
9.412,0.009,-0.012,0.010,0.146,-0.031,0.036,0.637,-0.093,-0.014,0.000,0.000,0.100,0.092,-0.017,0.668,-0.004,-0.009,2.464
9.438,-0.004,-0.010,-0.009,0.146,-0.031,0.036,0.640,-0.093,-0.013,0.000,-0.001,0.104,0.092,-0.017,0.670,-0.004,-0.009,2.482
9.465,0.005,0.010,-0.029,0.146,-0.031,0.036,0.643,-0.094,-0.012,0.000,-0.001,0.104,0.092,-0.017,0.675,-0.004,-0.009,2.544
9.494,-0.025,0.014,-0.010,0.147,-0.031,0.036,0.648,-0.095,-0.011,-0.001,-0.001,0.109,0.092,-0.017,0.677,-0.005,-0.009,2.570
9.520,0.064,-0.006,-0.020,0.147,-0.031,0.036,0.651,-0.096,-0.010,0.001,-0.001,0.099,0.092,-0.017,0.679,-0.005,-0.008,2.577
9.548,-0.084,-0.026,-0.019,0.147,-0.031,0.035,0.654,-0.097,-0.009,0.001,0.000,0.088,0.092,-0.017,0.683,-0.005,-0.008,2.642
9.574,0.000,0.053,-0.001,0.147,-0.031,0.035,0.660,-0.098,-0.008,-0.001,-0.001,0.101,0.092,-0.017,0.685,-0.005,-0.009,2.646
9.600,-0.002,-0.003,0.009,0.147,-0.031,0.035,0.663,-0.098,-0.007,-0.001,-0.001,0.101,0.092,-0.017,0.687,-0.005,-0.009,2.669
9.629,-0.068,-0.003,0.020,0.146,-0.030,0.035,0.666,-0.099,-0.007,0.000,-0.001,0.110,0.092,-0.017,0.691,-0.005,-0.009,2.692
9.655,0.063,0.047,0.009,0.146,-0.030,0.035,0.672,-0.100,-0.005,0.000,-0.001,0.099,0.092,-0.017,0.693,-0.005,-0.009,2.709
9.681,-0.028,0.013,-0.000,0.146,-0.030,0.035,0.675,-0.101,-0.004,0.000,-0.001,0.117,0.092,-0.017,0.695,-0.004,-0.009,2.680
9.709,0.007,-0.014,0.009,0.146,-0.030,0.035,0.678,-0.101,-0.004,0.000,-0.001,0.109,0.092,-0.017,0.700,-0.004,-0.009,2.725
9.735,-0.046,0.015,-0.000,0.145,-0.030,0.035,0.684,-0.103,-0.002,0.000,0.000,0.114,0.092,-0.017,0.702,-0.004,-0.009,2.720
9.764,-0.053,0.020,0.010,0.145,-0.029,0.035,0.686,-0.103,-0.002,0.000,0.000,0.103,0.092,-0.017,0.704,-0.004,-0.010,2.811
9.790,0.004,0.011,-0.010,0.145,-0.029,0.035,0.689,-0.104,-0.001,0.000,0.000,0.099,0.092,-0.017,0.708,-0.004,-0.010,2.814
9.817,-0.037,0.001,0.010,0.144,-0.029,0.035,0.695,-0.105,0.000,0.000,-0.001,0.115,0.092,-0.017,0.710,-0.004,-0.009,2.810
9.845,-0.011,0.019,-0.000,0.144,-0.029,0.035,0.698,-0.106,0.001,-0.001,-0.002,0.105,0.092,-0.017,0.712,-0.004,-0.010,2.845
9.872,-0.011,-0.011,-0.000,0.144,-0.029,0.035,0.704,-0.107,0.003,0.000,-0.002,0.104,0.092,-0.017,0.717,-0.004,-0.010,2.853
9.898,0.095,-0.018,-0.001,0.144,-0.029,0.035,0.707,-0.107,0.003,0.000,-0.001,0.098,0.092,-0.017,0.719,-0.004,-0.010,2.822
9.924,-0.032,0.001,-0.000,0.144,-0.029,0.035,0.710,-0.108,0.004,0.001,-0.001,0.110,0.092,-0.017,0.721,-0.004,-0.010,2.856
9.951,0.065,0.020,0.009,0.144,-0.028,0.035,0.712,-0.108,0.005,0.000,-0.001,0.103,0.092,-0.017,0.725,-0.004,-0.010,2.861
9.977,0.076,-0.017,-0.001,0.144,-0.028,0.035,0.718,-0.110,0.006,-0.001,-0.001,0.095,0.092,-0.017,0.727,-0.004,-0.010,2.843
10.004,-0.027,0.030,-0.010,0.144,-0.028,0.035,0.721,-0.110,0.007,0.000,-0.001,0.108,0.092,-0.017,0.729,-0.004,-0.010,2.927
10.032,0.028,0.003,-0.001,0.144,-0.028,0.035,0.727,-0.111,0.008,0.000,0.000,0.108,0.092,-0.017,0.733,-0.004,-0.010,2.937
10.058,-0.043,0.009,0.020,0.144,-0.028,0.035,0.730,-0.112,0.009,0.000,0.000,0.111,0.092,-0.017,0.736,-0.004,-0.010,2.957
10.084,0.047,-0.023,-0.001,0.144,-0.028,0.035,0.733,-0.112,0.010,0.000,0.000,0.104,0.092,-0.017,0.738,-0.004,-0.009,3.029
10.111,0.016,-0.018,-0.000,0.145,-0.028,0.035,0.735,-0.113,0.010,0.000,-0.001,0.115,0.092,-0.017,0.742,-0.004,-0.009,3.019
10.137,-0.007,0.036,0.009,0.145,-0.028,0.035,0.741,-0.114,0.012,0.000,-0.001,0.116,0.092,-0.017,0.744,-0.004,-0.010,3.034
10.165,-0.014,0.014,-0.000,0.145,-0.027,0.035,0.744,-0.115,0.012,0.000,-0.002,0.100,0.092,-0.017,0.748,-0.004,-0.010,3.021
10.192,0.007,-0.003,0.009,0.145,-0.027,0.036,0.750,-0.116,0.014,0.000,0.000,0.109,0.092,-0.017,0.751,-0.004,-0.010,3.026
10.218,0.028,-0.021,-0.000,0.145,-0.027,0.036,0.753,-0.116,0.015,0.000,-0.001,0.105,0.092,-0.017,0.753,-0.004,-0.010,3.055
10.245,0.005,0.015,0.019,0.146,-0.027,0.036,0.756,-0.117,0.015,0.000,-0.001,0.115,0.092,-0.017,0.755,-0.003,-0.010,3.076
10.272,-0.022,0.012,0.019,0.146,-0.027,0.036,0.762,-0.118,0.017,-0.001,-0.001,0.109,0.092,-0.017,0.759,-0.003,-0.010,3.087
10.299,-0.003,0.023,0.009,0.146,-0.027,0.036,0.765,-0.118,0.017,-0.001,-0.002,0.104,0.092,-0.017,0.761,-0.003,-0.010,3.091
10.325,0.006,0.031,0.009,0.146,-0.027,0.036,0.767,-0.119,0.018,0.001,-0.001,0.105,0.092,-0.018,0.766,-0.003,-0.010,3.120
10.352,0.079,-0.034,0.009,0.147,-0.027,0.036,0.773,-0.120,0.020,0.000,-0.001,0.099,0.092,-0.018,0.768,-0.003,-0.009,3.131
10.379,-0.010,-0.006,-0.000,0.147,-0.027,0.036,0.776,-0.120,0.020,-0.001,0.000,0.103,0.092,-0.018,0.770,-0.003,-0.009,3.131
10.406,0.018,-0.014,0.009,0.147,-0.027,0.037,0.779,-0.121,0.021,-0.001,-0.001,0.114,0.092,-0.018,0.774,-0.004,-0.009,3.141
10.433,-0.001,0.014,0.009,0.148,-0.026,0.037,0.785,-0.122,0.022,0.000,-0.002,0.108,0.092,-0.018,0.776,-0.003,-0.009,-3.139
10.457,0.077,-0.006,-0.001,0.148,-0.026,0.037,0.788,-0.123,0.023,-0.001,-0.001,0.103,0.092,-0.018,0.778,-0.003,-0.009,-3.133
10.483,-0.019,0.022,0.019,0.148,-0.026,0.037,0.791,-0.123,0.024,0.000,-0.001,0.110,0.092,-0.018,0.780,-0.003,-0.009,-3.111
10.508,0.039,-0.038,0.039,0.149,-0.026,0.037,0.794,-0.124,0.025,0.000,-0.001,0.117,0.092,-0.018,0.785,-0.003,-0.009,-3.114
10.533,0.052,-0.019,0.009,0.149,-0.026,0.038,0.800,-0.125,0.026,0.001,-0.002,0.103,0.092,-0.018,0.787,-0.003,-0.009,-3.123
10.557,-0.051,0.012,-0.000,0.149,-0.026,0.038,0.803,-0.125,0.027,0.000,-0.001,0.112,0.092,-0.018,0.789,-0.003,-0.010,-3.105
10.585,0.017,-0.000,-0.011,0.150,-0.026,0.038,0.806,-0.126,0.028,0.000,-0.001,0.100,0.092,-0.018,0.793,-0.003,-0.010,-3.082
10.612,-0.024,0.022,0.009,0.150,-0.026,0.038,0.812,-0.127,0.029,0.000,-0.001,0.112,0.092,-0.018,0.795,-0.003,-0.009,-3.063
10.638,0.032,0.025,-0.001,0.150,-0.026,0.038,0.815,-0.127,0.030,0.000,-0.001,0.105,0.092,-0.018,0.797,-0.003,-0.009,-3.067
10.665,-0.028,0.010,0.009,0.150,-0.026,0.039,0.818,-0.128,0.031,0.000,0.000,0.119,0.092,-0.018,0.800,-0.003,-0.009,-3.059
10.691,-0.000,-0.011,0.019,0.151,-0.026,0.039,0.821,-0.128,0.032,0.000,-0.001,0.098,0.092,-0.018,0.804,-0.003,-0.009,-3.059
10.719,-0.007,0.018,0.009,0.151,-0.026,0.039,0.827,-0.129,0.033,0.000,0.000,0.103,0.092,-0.018,0.806,-0.003,-0.009,-3.053
10.746,0.091,0.008,0.008,0.151,-0.026,0.039,0.830,-0.130,0.034,0.000,-0.001,0.110,0.092,-0.018,0.810,-0.003,-0.009,-3.043
10.772,0.028,-0.045,0.019,0.152,-0.026,0.039,0.836,-0.131,0.035,0.000,-0.001,0.097,0.092,-0.018,0.812,-0.003,-0.009,-3.043
10.798,-0.006,-0.002,0.009,0.152,-0.026,0.040,0.839,-0.132,0.036,0.000,0.000,0.121,0.092,-0.018,0.814,-0.003,-0.009,-3.035
10.825,0.012,-0.014,0.009,0.152,-0.026,0.040,0.842,-0.132,0.037,0.000,-0.001,0.111,0.092,-0.018,0.817,-0.003,-0.009,-3.048
10.851,0.040,0.003,0.019,0.152,-0.026,0.040,0.845,-0.133,0.038,0.001,0.000,0.112,0.092,-0.018,0.821,-0.003,-0.009,-3.056
10.877,0.002,0.024,0.009,0.153,-0.026,0.040,0.851,-0.134,0.039,0.000,0.000,0.099,0.092,-0.018,0.823,-0.002,-0.009,-3.042
10.906,0.000,0.004,-0.001,0.153,-0.026,0.041,0.854,-0.134,0.040,0.000,0.000,0.100,0.092,-0.018,0.827,-0.002,-0.009,-3.057
10.932,0.053,-0.010,0.009,0.153,-0.026,0.041,0.857,-0.135,0.041,0.001,0.001,0.115,0.092,-0.018,0.829,-0.002,-0.009,-3.047
10.958,0.011,-0.024,-0.001,0.153,-0.026,0.041,0.863,-0.136,0.043,0.000,0.001,0.106,0.092,-0.018,0.832,-0.003,-0.008,-3.030
10.984,-0.024,0.019,0.009,0.153,-0.026,0.041,0.867,-0.136,0.044,0.000,0.000,0.106,0.092,-0.018,0.834,-0.003,-0.008,-3.050
11.011,-0.005,0.007,0.019,0.153,-0.026,0.041,0.870,-0.137,0.044,0.000,0.000,0.103,0.092,-0.018,0.838,-0.003,-0.008,-3.031
11.039,-0.011,0.025,0.009,0.154,-0.026,0.042,0.876,-0.138,0.046,0.001,-0.001,0.112,0.092,-0.018,0.840,-0.002,-0.009,-3.018
11.067,0.003,-0.016,0.009,0.154,-0.026,0.042,0.879,-0.138,0.047,0.000,0.000,0.110,0.092,-0.018,0.845,-0.002,-0.009,-3.008
11.092,-0.003,0.007,0.019,0.154,-0.026,0.042,0.885,-0.139,0.048,0.001,-0.001,0.110,0.092,-0.018,0.847,-0.003,-0.009,-2.985
11.119,0.036,0.019,0.018,0.154,-0.026,0.042,0.888,-0.140,0.049,0.000,0.000,0.112,0.092,-0.018,0.849,-0.002,-0.008,-2.981
11.146,-0.008,-0.004,0.009,0.154,-0.026,0.042,0.891,-0.140,0.050,0.000,0.000,0.108,0.092,-0.018,0.853,-0.002,-0.008,-2.991
11.173,-0.012,0.005,-0.001,0.155,-0.025,0.043,0.897,-0.141,0.052,0.001,0.000,0.108,0.092,-0.018,0.855,-0.002,-0.009,-2.982
11.198,0.069,-0.062,-0.021,0.155,-0.025,0.043,0.900,-0.142,0.053,0.000,0.000,0.099,0.092,-0.018,0.857,-0.003,-0.008,-2.991
11.225,-0.064,0.037,-0.010,0.155,-0.025,0.043,0.904,-0.142,0.054,-0.001,0.000,0.109,0.092,-0.018,0.860,-0.003,-0.008,-2.989
11.251,-0.017,0.010,0.019,0.155,-0.025,0.043,0.907,-0.143,0.054,0.000,-0.001,0.103,0.092,-0.018,0.864,-0.003,-0.008,-2.982
11.277,-0.023,0.019,0.009,0.155,-0.025,0.043,0.913,-0.144,0.056,0.001,-0.001,0.110,0.092,-0.018,0.866,-0.003,-0.008,-2.991
11.304,0.061,-0.014,0.018,0.155,-0.025,0.043,0.916,-0.144,0.057,0.000,0.000,0.099,0.092,-0.018,0.868,-0.003,-0.008,-2.999
11.330,-0.004,0.014,0.009,0.155,-0.025,0.043,0.919,-0.145,0.058,0.000,0.000,0.098,0.092,-0.018,0.872,-0.002,-0.008,-2.992
11.358,0.003,-0.006,0.019,0.155,-0.025,0.044,0.925,-0.146,0.060,-0.001,0.000,0.117,0.092,-0.018,0.875,-0.002,-0.008,-2.981
11.384,-0.025,0.009,-0.000,0.155,-0.025,0.044,0.928,-0.146,0.061,0.000,-0.001,0.106,0.092,-0.018,0.877,-0.002,-0.008,-2.980
11.410,-0.013,0.006,0.019,0.155,-0.025,0.044,0.931,-0.147,0.061,-0.001,-0.001,0.100,0.092,-0.018,0.881,-0.002,-0.009,-2.966
11.436,0.024,-0.046,-0.001,0.155,-0.025,0.045,0.938,-0.148,0.063,0.000,0.000,0.105,0.092,-0.018,0.883,-0.003,-0.008,-2.960
11.463,-0.009,-0.010,0.009,0.155,-0.025,0.045,0.941,-0.148,0.064,0.000,0.000,0.105,0.092,-0.018,0.885,-0.003,-0.008,-2.978
11.489,0.066,-0.049,-0.011,0.155,-0.025,0.045,0.944,-0.149,0.065,-0.001,-0.001,0.100,0.092,-0.018,0.889,-0.003,-0.008,-2.978
11.515,-0.008,-0.024,0.039,0.155,-0.026,0.045,0.950,-0.150,0.067,0.000,-0.001,0.093,0.092,-0.018,0.891,-0.003,-0.008,-2.968
11.543,-0.047,0.042,-0.000,0.155,-0.026,0.045,0.953,-0.150,0.068,-0.001,-0.001,0.099,0.092,-0.018,0.894,-0.003,-0.008,-2.962
11.569,-0.009,0.024,0.000,0.155,-0.026,0.046,0.956,-0.151,0.069,0.000,-0.001,0.094,0.092,-0.019,0.898,-0.003,-0.008,-2.951
11.595,-0.016,0.024,0.010,0.156,-0.026,0.046,0.962,-0.152,0.070,0.000,-0.001,0.106,0.092,-0.019,0.900,-0.003,-0.008,-2.939
11.621,0.060,-0.043,-0.000,0.156,-0.026,0.046,0.965,-0.152,0.071,0.000,-0.001,0.099,0.092,-0.019,0.902,-0.003,-0.008,-2.930
11.648,-0.010,0.002,0.000,0.156,-0.026,0.046,0.969,-0.153,0.072,0.000,0.000,0.106,0.092,-0.019,0.906,-0.003,-0.008,-2.934
11.674,0.014,0.025,0.010,0.156,-0.026,0.046,0.975,-0.154,0.074,-0.001,-0.001,0.105,0.092,-0.019,0.908,-0.003,-0.008,-2.933
11.700,-0.013,-0.010,-0.010,0.156,-0.026,0.046,0.978,-0.154,0.075,0.000,0.000,0.104,0.092,-0.019,0.910,-0.003,-0.008,-2.946
11.728,0.028,-0.043,-0.010,0.156,-0.026,0.046,0.981,-0.155,0.076,0.000,-0.001,0.115,0.092,-0.019,0.914,-0.003,-0.008,-2.976
11.753,-0.023,-0.004,0.000,0.156,-0.026,0.046,0.987,-0.156,0.078,-0.001,-0.001,0.099,0.092,-0.019,0.916,-0.003,-0.008,-2.987
11.779,-0.077,0.033,-0.019,0.156,-0.026,0.046,0.990,-0.157,0.079,-0.001,0.000,0.108,0.092,-0.019,0.918,-0.003,-0.008,-2.998
11.806,-0.004,-0.016,0.000,0.156,-0.026,0.046,0.994,-0.157,0.080,0.000,-0.001,0.087,0.092,-0.019,0.922,-0.003,-0.008,-2.989
11.832,-0.008,0.025,0.000,0.156,-0.026,0.046,0.997,-0.158,0.081,0.000,0.000,0.109,0.092,-0.019,0.924,-0.003,-0.008,-2.988
11.859,0.016,0.029,-0.010,0.156,-0.026,0.046,1.003,-0.159,0.082,0.000,-0.001,0.100,0.092,-0.019,0.926,-0.003,-0.008,-2.980
11.885,-0.007,0.003,0.000,0.156,-0.025,0.046,1.006,-0.159,0.083,-0.001,0.000,0.100,0.092,-0.019,0.931,-0.003,-0.008,-2.976
11.912,-0.042,0.009,0.000,0.155,-0.025,0.046,1.012,-0.160,0.085,-0.001,-0.001,0.122,0.092,-0.019,0.933,-0.003,-0.009,-2.972
11.938,-0.011,0.014,0.000,0.155,-0.025,0.046,1.015,-0.161,0.086,0.001,0.000,0.105,0.092,-0.019,0.935,-0.003,-0.009,-2.965
11.965,0.010,0.027,0.010,0.155,-0.025,0.046,1.019,-0.161,0.087,0.000,-0.001,0.109,0.092,-0.019,0.937,-0.003,-0.009,-2.979
11.991,0.005,-0.002,-0.000,0.155,-0.025,0.046,1.022,-0.162,0.088,0.000,0.000,0.097,0.092,-0.019,0.941,-0.003,-0.009,-2.989
12.017,-0.001,0.001,-0.010,0.155,-0.025,0.046,1.028,-0.163,0.090,0.001,0.000,0.103,0.092,-0.019,0.943,-0.003,-0.008,-3.000
12.045,-0.018,0.004,0.000,0.156,-0.025,0.046,1.031,-0.163,0.091,0.000,0.000,0.095,0.092,-0.019,0.945,-0.003,-0.008,-2.984
12.070,0.040,-0.005,-0.020,0.156,-0.025,0.046,1.034,-0.164,0.092,0.000,-0.001,0.101,0.092,-0.019,0.949,-0.003,-0.008,-2.983
12.097,-0.070,0.032,-0.009,0.156,-0.025,0.046,1.040,-0.165,0.094,0.000,0.000,0.097,0.092,-0.019,0.951,-0.003,-0.008,-2.975
12.123,-0.027,0.032,-0.019,0.156,-0.025,0.046,1.043,-0.165,0.094,0.000,0.000,0.104,0.092,-0.019,0.953,-0.003,-0.009,-2.965
12.150,0.031,0.022,-0.010,0.155,-0.024,0.046,1.047,-0.166,0.095,0.000,0.000,0.110,0.092,-0.019,0.957,-0.003,-0.009,-2.969
12.178,0.023,-0.049,-0.010,0.155,-0.024,0.045,1.053,-0.167,0.097,0.000,-0.001,0.094,0.092,-0.019,0.959,-0.003,-0.009,-2.967
12.203,-0.043,0.004,0.000,0.155,-0.024,0.045,1.056,-0.167,0.098,0.000,0.000,0.097,0.092,-0.019,0.961,-0.003,-0.010,-2.947
12.229,0.028,0.010,-0.010,0.155,-0.024,0.045,1.059,-0.168,0.099,0.000,-0.001,0.110,0.092,-0.019,0.965,-0.003,-0.010,-2.941
12.255,0.006,0.002,-0.020,0.155,-0.023,0.045,1.065,-0.168,0.101,0.000,-0.001,0.104,0.092,-0.019,0.968,-0.002,-0.010,-2.942
12.280,0.007,-0.035,0.010,0.155,-0.023,0.045,1.068,-0.169,0.102,0.001,0.000,0.095,0.092,-0.019,0.970,-0.003,-0.009,-2.941
12.309,0.044,-0.002,-0.020,0.155,-0.023,0.045,1.071,-0.169,0.103,0.000,-0.001,0.103,0.092,-0.019,0.974,-0.003,-0.009,-2.962
12.338,0.024,0.002,-0.010,0.155,-0.023,0.044,1.077,-0.170,0.104,0.000,-0.001,0.112,0.092,-0.019,0.976,-0.003,-0.009,-2.980
12.368,0.006,0.013,-0.010,0.155,-0.023,0.044,1.081,-0.171,0.105,0.000,-0.001,0.098,0.092,-0.019,0.980,-0.002,-0.009,-2.999
12.393,-0.023,0.007,-0.019,0.155,-0.023,0.044,1.087,-0.172,0.107,0.000,0.000,0.111,0.092,-0.019,0.982,-0.002,-0.010,-2.996
12.417,0.029,0.019,-0.010,0.156,-0.023,0.044,1.090,-0.172,0.108,0.001,0.000,0.106,0.092,-0.019,0.984,-0.002,-0.010,-2.982
12.441,-0.018,0.025,-0.010,0.156,-0.023,0.043,1.093,-0.173,0.109,0.001,0.000,0.120,0.092,-0.019,0.986,-0.002,-0.010,-2.969
12.466,0.030,-0.043,-0.010,0.156,-0.023,0.043,1.096,-0.173,0.110,0.000,-0.001,0.105,0.092,-0.019,0.990,-0.002,-0.010,-2.953
12.490,0.006,-0.008,-0.010,0.156,-0.023,0.043,1.099,-0.174,0.111,0.001,-0.001,0.111,0.092,-0.019,0.992,-0.002,-0.010,-2.952
12.515,0.010,0.019,-0.000,0.157,-0.023,0.042,1.106,-0.174,0.112,0.001,-0.001,0.104,0.092,-0.019,0.994,-0.002,-0.010,-2.968
12.538,0.008,0.009,-0.010,0.157,-0.023,0.042,1.109,-0.175,0.113,0.000,-0.001,0.111,0.092,-0.019,0.997,-0.002,-0.010,-2.953
12.563,0.050,-0.008,-0.000,0.157,-0.023,0.042,1.112,-0.175,0.114,-0.001,-0.002,0.099,0.092,-0.019,0.999,-0.002,-0.009,-2.959
12.586,-0.016,0.014,0.010,0.157,-0.023,0.042,1.115,-0.176,0.115,0.000,-0.001,0.095,0.092,-0.019,1.003,-0.002,-0.009,-2.958
12.610,0.018,-0.012,-0.010,0.157,-0.023,0.042,1.118,-0.176,0.116,0.000,0.000,0.120,0.092,-0.019,1.005,-0.002,-0.009,-2.947
12.634,-0.035,0.008,0.001,0.158,-0.022,0.041,1.124,-0.177,0.117,0.000,-0.001,0.108,0.092,-0.019,1.007,-0.002,-0.009,-2.960
12.659,0.036,0.014,-0.000,0.158,-0.022,0.041,1.128,-0.178,0.118,-0.001,0.000,0.108,0.092,-0.019,1.009,-0.002,-0.009,-2.945
12.685,-0.016,-0.004,0.000,0.158,-0.022,0.041,1.131,-0.178,0.119,0.000,-0.001,0.095,0.092,-0.019,1.013,-0.002,-0.009,-2.927
12.711,0.038,0.014,-0.000,0.158,-0.022,0.041,1.134,-0.179,0.120,0.000,0.000,0.112,0.092,-0.019,1.016,-0.002,-0.009,-2.932
12.738,0.046,-0.060,-0.000,0.158,-0.022,0.041,1.140,-0.179,0.121,-0.001,-0.001,0.098,0.092,-0.019,1.018,-0.002,-0.010,-2.926
12.765,-0.050,0.029,0.011,0.158,-0.022,0.041,1.143,-0.180,0.122,-0.001,-0.001,0.105,0.092,-0.019,1.020,-0.002,-0.010,-2.947
12.791,0.014,0.005,0.020,0.159,-0.022,0.041,1.150,-0.181,0.124,0.000,-0.001,0.099,0.092,-0.019,1.024,-0.002,-0.010,-2.950
12.819,0.015,0.015,-0.009,0.159,-0.022,0.041,1.153,-0.181,0.125,0.000,0.000,0.110,0.092,-0.019,1.026,-0.002,-0.010,-2.944
12.846,0.053,-0.021,-0.000,0.159,-0.022,0.041,1.156,-0.182,0.125,0.000,0.000,0.108,0.092,-0.019,1.030,-0.002,-0.010,-2.958
12.872,0.063,-0.041,-0.000,0.159,-0.022,0.041,1.162,-0.182,0.127,0.000,-0.001,0.097,0.092,-0.019,1.032,-0.002,-0.010,-2.945
12.897,-0.020,-0.004,-0.009,0.160,-0.022,0.041,1.166,-0.183,0.128,0.000,-0.001,0.108,0.092,-0.019,1.034,-0.002,-0.009,-2.926
12.924,0.003,0.010,0.020,0.160,-0.022,0.041,1.169,-0.183,0.129,0.000,-0.001,0.098,0.092,-0.019,1.036,-0.002,-0.009,-2.905
12.951,0.013,0.007,0.000,0.160,-0.022,0.041,1.172,-0.184,0.130,0.000,-0.001,0.104,0.092,-0.019,1.040,-0.002,-0.009,-2.899
12.977,0.076,-0.070,-0.000,0.160,-0.022,0.041,1.178,-0.185,0.131,0.000,-0.001,0.093,0.092,-0.020,1.043,-0.002,-0.009,-2.901
13.005,-0.016,0.003,-0.019,0.161,-0.022,0.041,1.182,-0.185,0.132,0.001,0.000,0.112,0.092,-0.020,1.045,-0.002,-0.009,-2.923
13.032,0.024,-0.046,0.020,0.161,-0.022,0.041,1.185,-0.186,0.133,-0.001,-0.001,0.105,0.092,-0.020,1.049,-0.002,-0.009,-2.913
13.057,-0.021,0.003,0.020,0.161,-0.022,0.041,1.191,-0.186,0.135,0.001,-0.001,0.108,0.092,-0.020,1.051,-0.002,-0.010,-2.919
13.084,0.011,0.014,0.020,0.161,-0.022,0.041,1.195,-0.187,0.135,-0.001,-0.001,0.098,0.092,-0.020,1.053,-0.002,-0.010,-2.904
13.111,0.002,0.016,0.000,0.161,-0.022,0.042,1.198,-0.187,0.136,0.000,-0.001,0.098,0.092,-0.020,1.057,-0.002,-0.010,-2.885
13.140,-0.004,0.018,0.010,0.162,-0.022,0.042,1.204,-0.188,0.138,0.000,-0.001,0.108,0.092,-0.020,1.059,-0.002,-0.009,-2.886
13.169,0.028,-0.038,0.010,0.162,-0.022,0.042,1.207,-0.189,0.139,0.001,0.000,0.103,0.092,-0.020,1.063,-0.002,-0.009,-2.873
13.200,-0.002,0.000,0.020,0.162,-0.022,0.042,1.214,-0.190,0.140,0.000,0.001,0.094,0.092,-0.020,1.065,-0.002,-0.009,-2.874
13.229,0.079,-0.002,-0.000,0.162,-0.022,0.042,1.217,-0.190,0.141,0.000,0.001,0.106,0.092,-0.020,1.069,-0.002,-0.009,-2.883
13.253,0.043,-0.062,-0.000,0.163,-0.022,0.042,1.224,-0.191,0.143,0.000,0.000,0.093,0.092,-0.020,1.071,-0.002,-0.009,-2.887
13.279,-0.010,0.002,0.000,0.163,-0.023,0.043,1.227,-0.191,0.144,0.000,0.001,0.108,0.092,-0.020,1.073,-0.002,-0.009,-2.883
13.308,-0.020,0.005,0.010,0.163,-0.023,0.043,1.230,-0.192,0.145,0.000,0.000,0.106,0.092,-0.020,1.077,-0.002,-0.009,-2.891
13.331,-0.051,0.022,0.001,0.164,-0.023,0.043,1.233,-0.192,0.145,0.000,0.000,0.105,0.092,-0.020,1.080,-0.002,-0.009,-2.886
13.355,-0.026,0.025,0.010,0.164,-0.023,0.043,1.240,-0.193,0.147,0.001,0.000,0.101,0.092,-0.020,1.082,-0.002,-0.010,-2.874
13.378,0.044,-0.015,0.019,0.164,-0.023,0.043,1.243,-0.194,0.148,0.000,0.000,0.105,0.092,-0.020,1.084,-0.002,-0.010,-2.871
13.401,0.019,0.011,0.000,0.164,-0.023,0.043,1.247,-0.194,0.149,0.000,0.000,0.109,0.092,-0.020,1.086,-0.002,-0.010,-2.867
13.425,-0.021,0.012,0.010,0.164,-0.023,0.043,1.250,-0.194,0.150,0.000,0.000,0.110,0.092,-0.020,1.088,-0.002,-0.010,-2.833
13.448,0.030,-0.042,0.010,0.164,-0.023,0.044,1.253,-0.195,0.151,-0.001,-0.001,0.104,0.092,-0.020,1.092,-0.002,-0.009,-2.838
13.472,0.010,-0.004,0.000,0.164,-0.023,0.044,1.260,-0.196,0.152,0.000,0.000,0.099,0.092,-0.020,1.094,-0.002,-0.009,-2.833
13.495,0.079,-0.014,0.009,0.164,-0.023,0.044,1.263,-0.196,0.153,0.000,0.000,0.108,0.092,-0.020,1.096,-0.002,-0.009,-2.851
13.521,-0.012,0.021,0.000,0.164,-0.023,0.044,1.266,-0.197,0.154,0.000,0.000,0.110,0.092,-0.020,1.098,-0.002,-0.009,-2.872
13.547,0.039,-0.054,0.010,0.164,-0.023,0.044,1.270,-0.197,0.155,0.001,0.000,0.110,0.092,-0.020,1.102,-0.002,-0.009,-2.884
13.575,-0.008,0.019,0.019,0.164,-0.023,0.045,1.276,-0.198,0.157,0.000,0.000,0.093,0.092,-0.020,1.104,-0.002,-0.010,-2.888
13.600,0.046,-0.025,0.018,0.165,-0.023,0.045,1.279,-0.199,0.158,0.000,0.000,0.098,0.092,-0.020,1.106,-0.002,-0.009,-2.870
13.627,-0.019,-0.007,0.029,0.165,-0.023,0.045,1.283,-0.199,0.159,0.001,0.000,0.114,0.092,-0.020,1.111,-0.002,-0.009,-2.860
13.654,-0.025,0.024,0.029,0.165,-0.023,0.045,1.289,-0.200,0.160,0.001,0.000,0.112,0.092,-0.020,1.113,-0.002,-0.010,-2.853
13.679,0.038,-0.024,0.009,0.165,-0.023,0.046,1.293,-0.200,0.161,0.000,-0.001,0.101,0.092,-0.020,1.115,-0.002,-0.009,-2.855
13.707,-0.041,0.019,0.029,0.165,-0.023,0.046,1.296,-0.201,0.162,0.000,-0.001,0.092,0.092,-0.020,1.119,-0.002,-0.009,-2.848
13.732,0.013,-0.004,0.019,0.164,-0.023,0.047,1.302,-0.202,0.164,0.000,-0.001,0.090,0.092,-0.020,1.121,-0.002,-0.009,-2.858
13.760,0.003,-0.002,0.019,0.164,-0.023,0.047,1.306,-0.202,0.165,0.001,-0.001,0.101,0.092,-0.020,1.123,-0.002,-0.009,-2.835
13.787,0.018,0.014,-0.001,0.164,-0.023,0.047,1.309,-0.203,0.166,0.000,0.000,0.105,0.092,-0.020,1.127,-0.002,-0.009,-2.823
13.812,0.047,-0.056,0.018,0.165,-0.023,0.048,1.316,-0.204,0.168,0.000,0.001,0.099,0.092,-0.020,1.129,-0.002,-0.009,-2.838
13.835,-0.040,0.012,-0.000,0.165,-0.023,0.048,1.319,-0.204,0.169,0.000,0.000,0.114,0.092,-0.020,1.131,-0.002,-0.010,-2.830
13.858,-0.006,-0.009,0.009,0.165,-0.023,0.048,1.322,-0.205,0.170,0.000,0.000,0.100,0.092,-0.020,1.133,-0.002,-0.010,-2.848
13.881,-0.018,-0.023,0.029,0.165,-0.023,0.049,1.325,-0.205,0.171,0.000,0.000,0.110,0.092,-0.020,1.135,-0.002,-0.010,-2.861
13.906,-0.029,0.011,0.009,0.165,-0.023,0.049,1.329,-0.205,0.172,-0.001,-0.001,0.101,0.092,-0.020,1.140,-0.002,-0.010,-2.850
13.929,0.066,-0.055,0.008,0.165,-0.023,0.049,1.332,-0.206,0.173,0.000,-0.001,0.110,0.092,-0.020,1.142,-0.003,-0.009,-2.832
13.954,0.034,-0.015,0.019,0.165,-0.024,0.050,1.339,-0.207,0.175,0.000,0.000,0.099,0.092,-0.020,1.144,-0.003,-0.009,-2.830
13.977,-0.016,0.021,0.029,0.165,-0.024,0.050,1.342,-0.207,0.176,0.000,0.000,0.108,0.092,-0.020,1.146,-0.003,-0.009,-2.829
14.003,-0.009,-0.020,0.029,0.165,-0.024,0.051,1.345,-0.208,0.177,0.000,-0.001,0.101,0.092,-0.020,1.148,-0.003,-0.009,-2.829
14.030,-0.053,0.035,-0.000,0.165,-0.024,0.051,1.348,-0.208,0.178,0.000,-0.001,0.105,0.092,-0.020,1.152,-0.003,-0.009,-2.838
14.056,0.087,-0.022,0.008,0.165,-0.024,0.051,1.355,-0.209,0.180,-0.001,-0.001,0.089,0.092,-0.020,1.154,-0.003,-0.009,-2.832
14.083,-0.000,0.024,0.009,0.165,-0.024,0.052,1.358,-0.210,0.181,0.000,-0.001,0.108,0.092,-0.020,1.156,-0.002,-0.009,-2.824
14.112,-0.012,-0.012,-0.000,0.165,-0.024,0.052,1.365,-0.211,0.183,0.001,-0.001,0.111,0.092,-0.020,1.160,-0.002,-0.009,-2.833
14.137,0.006,0.013,-0.001,0.165,-0.024,0.052,1.368,-0.211,0.184,0.000,0.000,0.099,0.092,-0.020,1.163,-0.002,-0.009,-2.857
14.164,0.003,0.003,0.009,0.165,-0.024,0.053,1.372,-0.212,0.185,0.000,0.000,0.106,0.092,-0.020,1.165,-0.002,-0.009,-2.884
14.190,0.003,0.003,-0.001,0.165,-0.024,0.053,1.375,-0.212,0.186,0.000,0.000,0.101,0.092,-0.020,1.169,-0.002,-0.009,-2.850
14.216,-0.011,0.007,0.029,0.166,-0.024,0.053,1.381,-0.213,0.188,0.001,0.000,0.106,0.092,-0.020,1.171,-0.002,-0.009,-2.840
14.243,0.052,0.024,0.028,0.166,-0.024,0.053,1.385,-0.214,0.189,0.000,0.000,0.099,0.092,-0.020,1.173,-0.002,-0.008,-2.818
14.269,-0.010,0.023,0.029,0.166,-0.024,0.054,1.388,-0.214,0.190,0.000,0.000,0.092,0.092,-0.020,1.177,-0.002,-0.008,-2.829
14.296,-0.023,0.019,0.019,0.167,-0.024,0.054,1.395,-0.215,0.192,-0.001,0.000,0.095,0.092,-0.020,1.179,-0.002,-0.008,-2.841
14.323,-0.024,0.037,0.029,0.167,-0.024,0.055,1.398,-0.215,0.194,-0.001,-0.001,0.104,0.092,-0.020,1.181,-0.002,-0.009,-2.847
14.350,0.029,0.011,0.028,0.167,-0.024,0.055,1.401,-0.216,0.195,0.000,-0.001,0.106,0.092,-0.020,1.185,-0.002,-0.009,-2.861
14.377,0.046,-0.037,0.009,0.167,-0.023,0.056,1.408,-0.217,0.197,-0.001,0.000,0.094,0.092,-0.020,1.187,-0.002,-0.009,-2.844
14.404,-0.052,0.031,-0.000,0.167,-0.023,0.056,1.411,-0.217,0.198,0.001,0.000,0.104,0.092,-0.020,1.189,-0.002,-0.009,-2.879
14.431,0.005,0.015,-0.001,0.167,-0.023,0.056,1.415,-0.218,0.199,-0.001,0.000,0.099,0.092,-0.020,1.193,-0.002,-0.009,-2.896
14.457,0.065,-0.020,0.018,0.168,-0.023,0.057,1.422,-0.219,0.201,-0.001,0.000,0.099,0.092,-0.020,1.195,-0.001,-0.009,-2.915
14.484,0.067,-0.027,0.008,0.168,-0.023,0.057,1.425,-0.219,0.202,0.001,0.000,0.110,0.092,-0.020,1.197,-0.002,-0.008,-2.968
14.509,-0.037,0.003,0.019,0.168,-0.023,0.057,1.428,-0.220,0.204,0.000,0.000,0.109,0.092,-0.020,1.202,-0.002,-0.008,-2.993
14.535,0.010,-0.006,0.019,0.169,-0.023,0.058,1.435,-0.221,0.206,0.000,-0.001,0.114,0.092,-0.020,1.204,-0.002,-0.008,-2.971
14.563,-0.010,-0.011,0.000,0.169,-0.023,0.058,1.438,-0.221,0.207,0.001,-0.001,0.115,0.092,-0.020,1.206,-0.002,-0.008,-2.938
14.590,-0.008,-0.001,-0.020,0.169,-0.023,0.059,1.442,-0.221,0.208,0.001,0.000,0.116,0.092,-0.020,1.210,-0.002,-0.008,-2.938
14.617,0.047,0.005,-0.010,0.169,-0.023,0.059,1.449,-0.222,0.211,0.000,-0.001,0.109,0.092,-0.020,1.212,-0.002,-0.009,-2.932
14.644,-0.018,0.018,-0.019,0.169,-0.023,0.059,1.452,-0.223,0.212,0.001,0.000,0.120,0.092,-0.020,1.214,-0.001,-0.009,-2.999
14.671,0.074,-0.026,-0.010,0.170,-0.023,0.059,1.455,-0.223,0.213,0.000,0.000,0.116,0.092,-0.020,1.219,-0.001,-0.009,-2.979
14.699,0.007,0.012,-0.020,0.170,-0.023,0.059,1.462,-0.224,0.215,0.000,0.000,0.106,0.092,-0.020,1.221,-0.001,-0.010,-2.975
14.726,0.003,-0.015,-0.029,0.170,-0.023,0.059,1.465,-0.225,0.217,0.000,-0.001,0.114,0.092,-0.020,1.225,-0.001,-0.009,-3.064
14.752,0.041,0.010,-0.020,0.170,-0.022,0.059,1.472,-0.226,0.219,-0.001,-0.001,0.109,0.092,-0.020,1.227,-0.001,-0.009,-3.054
14.777,-0.018,0.005,-0.019,0.170,-0.022,0.059,1.476,-0.226,0.220,0.001,-0.001,0.108,0.092,-0.020,1.229,-0.001,-0.009,-3.097
14.803,0.001,-0.005,-0.010,0.170,-0.022,0.059,1.479,-0.226,0.221,0.000,0.000,0.098,0.092,-0.020,1.232,-0.001,-0.009,3.105
14.830,0.040,-0.004,0.009,0.170,-0.022,0.058,1.482,-0.227,0.222,0.001,-0.001,0.110,0.092,-0.020,1.236,-0.001,-0.009,3.087
14.856,-0.009,0.012,-0.010,0.171,-0.022,0.058,1.489,-0.228,0.225,0.000,0.000,0.109,0.092,-0.020,1.238,-0.001,-0.009,3.102
14.885,-0.008,0.011,-0.010,0.171,-0.022,0.058,1.493,-0.228,0.226,0.000,-0.001,0.110,0.092,-0.020,1.240,-0.001,-0.009,3.124
14.911,0.002,0.012,-0.020,0.171,-0.022,0.058,1.496,-0.229,0.227,0.001,-0.001,0.111,0.092,-0.020,1.245,-0.001,-0.009,3.140
14.937,0.050,-0.030,-0.030,0.171,-0.022,0.058,1.503,-0.230,0.229,0.001,0.000,0.101,0.092,-0.020,1.247,-0.001,-0.009,-3.117
14.964,-0.025,0.009,-0.019,0.171,-0.022,0.057,1.506,-0.230,0.231,0.000,0.001,0.104,0.092,-0.020,1.249,-0.001,-0.009,3.055
14.989,0.005,-0.009,-0.010,0.171,-0.022,0.057,1.510,-0.230,0.232,0.000,0.000,0.098,0.092,-0.020,1.253,-0.001,-0.009,3.043
15.017,0.014,0.011,-0.020,0.171,-0.022,0.057,1.517,-0.231,0.234,0.000,-0.001,0.103,0.092,-0.020,1.255,-0.001,-0.010,2.983
15.042,0.057,0.019,-0.030,0.172,-0.022,0.056,1.520,-0.232,0.235,0.001,-0.001,0.110,0.093,-0.020,1.257,-0.001,-0.009,2.890
15.070,-0.018,-0.006,-0.029,0.172,-0.021,0.056,1.524,-0.232,0.236,0.001,-0.001,0.108,0.093,-0.020,1.262,-0.001,-0.009,2.864
15.096,-0.007,-0.013,-0.019,0.172,-0.021,0.055,1.530,-0.233,0.238,0.000,0.000,0.114,0.093,-0.020,1.264,-0.001,-0.009,2.862
15.121,-0.004,-0.020,0.000,0.172,-0.021,0.055,1.534,-0.233,0.240,0.000,0.000,0.099,0.093,-0.020,1.266,-0.001,-0.009,2.882
15.148,-0.016,-0.014,0.000,0.172,-0.021,0.055,1.537,-0.234,0.241,-0.001,0.000,0.097,0.093,-0.020,1.270,-0.001,-0.009,2.842
15.174,-0.020,0.004,-0.010,0.172,-0.021,0.054,1.544,-0.235,0.243,0.000,0.000,0.093,0.093,-0.020,1.272,-0.001,-0.009,2.750
15.203,0.005,0.015,-0.010,0.172,-0.022,0.054,1.548,-0.235,0.244,0.000,0.000,0.094,0.093,-0.020,1.274,-0.001,-0.009,2.499
15.228,0.077,0.047,-0.020,0.172,-0.022,0.054,1.551,-0.236,0.245,0.000,0.000,0.109,0.093,-0.020,1.278,-0.001,-0.009,2.472
15.255,0.002,0.002,-0.020,0.172,-0.021,0.053,1.558,-0.236,0.247,-0.001,-0.001,0.103,0.093,-0.020,1.280,-0.001,-0.009,2.472
15.280,0.002,0.002,-0.010,0.172,-0.021,0.053,1.561,-0.237,0.248,0.000,0.000,0.103,0.093,-0.021,1.282,-0.001,-0.009,2.398
15.309,-0.035,-0.031,-0.029,0.172,-0.021,0.053,1.565,-0.237,0.249,-0.001,-0.001,0.104,0.093,-0.021,1.287,-0.001,-0.009,2.264
15.336,-0.009,0.003,-0.029,0.172,-0.021,0.052,1.572,-0.238,0.251,0.001,-0.001,0.108,0.093,-0.021,1.289,-0.001,-0.009,2.086
15.363,0.053,0.035,-0.030,0.173,-0.021,0.052,1.575,-0.239,0.252,0.001,-0.001,0.101,0.093,-0.021,1.291,-0.001,-0.008,1.951
15.390,-0.029,-0.038,-0.039,0.173,-0.021,0.051,1.579,-0.239,0.253,0.001,-0.001,0.099,0.093,-0.021,1.295,-0.001,-0.008,2.103
15.416,-0.012,0.007,-0.020,0.173,-0.021,0.050,1.586,-0.240,0.255,0.000,0.000,0.109,0.093,-0.021,1.297,-0.001,-0.008,1.903
15.443,-0.017,-0.010,-0.029,0.173,-0.021,0.050,1.589,-0.240,0.256,0.000,-0.001,0.103,0.093,-0.021,1.299,-0.001,-0.008,1.915
15.471,0.059,0.056,-0.030,0.173,-0.021,0.049,1.592,-0.241,0.257,0.002,0.000,0.108,0.093,-0.021,1.303,-0.001,-0.008,1.854
15.497,0.038,0.078,-0.030,0.173,-0.020,0.048,1.599,-0.241,0.259,0.001,0.000,0.094,0.093,-0.021,1.305,-0.001,-0.008,1.701
15.524,-0.013,-0.012,-0.019,0.173,-0.020,0.048,1.603,-0.242,0.260,0.000,0.000,0.106,0.093,-0.021,1.307,-0.001,-0.009,1.611
15.551,-0.011,-0.004,-0.010,0.173,-0.020,0.047,1.606,-0.242,0.261,0.000,-0.001,0.103,0.093,-0.021,1.311,-0.001,-0.009,1.514
15.577,0.001,-0.002,0.019,0.173,-0.020,0.047,1.613,-0.243,0.263,0.001,0.000,0.111,0.093,-0.021,1.314,-0.001,-0.009,1.402
15.605,-0.012,0.033,0.009,0.174,-0.020,0.046,1.617,-0.243,0.264,0.000,-0.001,0.101,0.093,-0.021,1.316,-0.001,-0.008,1.332
15.631,-0.007,-0.007,0.010,0.174,-0.019,0.046,1.620,-0.244,0.265,0.000,0.000,0.103,0.093,-0.021,1.320,-0.001,-0.008,1.307
15.657,0.000,-0.006,-0.010,0.174,-0.019,0.046,1.627,-0.245,0.267,0.000,0.000,0.103,0.093,-0.021,1.322,-0.001,-0.008,1.300
15.683,0.005,-0.051,0.000,0.174,-0.019,0.046,1.631,-0.245,0.268,0.000,-0.001,0.103,0.093,-0.021,1.324,-0.001,-0.009,1.226
15.709,-0.009,-0.004,0.039,0.174,-0.019,0.045,1.634,-0.245,0.269,0.000,0.000,0.104,0.093,-0.021,1.328,-0.001,-0.009,1.270
15.735,0.026,0.036,0.019,0.174,-0.019,0.045,1.641,-0.246,0.271,0.001,0.000,0.105,0.093,-0.021,1.330,-0.001,-0.009,1.217
15.763,0.023,-0.014,0.020,0.174,-0.019,0.045,1.645,-0.247,0.271,0.001,0.001,0.111,0.093,-0.021,1.332,-0.001,-0.009,1.193
15.792,-0.001,-0.031,0.020,0.174,-0.019,0.046,1.651,-0.247,0.273,0.000,0.001,0.111,0.093,-0.021,1.337,-0.001,-0.009,1.195
15.817,-0.002,-0.001,0.010,0.174,-0.019,0.046,1.655,-0.248,0.274,0.000,0.000,0.100,0.093,-0.021,1.339,-0.001,-0.009,1.109
15.844,-0.023,0.018,0.019,0.174,-0.018,0.046,1.658,-0.248,0.275,0.000,0.000,0.100,0.093,-0.021,1.341,-0.001,-0.009,1.039
15.870,0.001,-0.024,0.010,0.174,-0.018,0.046,1.662,-0.248,0.276,0.000,0.000,0.103,0.093,-0.021,1.345,-0.001,-0.009,1.033
15.896,-0.010,-0.001,0.009,0.174,-0.018,0.046,1.669,-0.249,0.278,0.001,0.000,0.115,0.093,-0.021,1.347,-0.001,-0.009,0.944
15.924,0.012,0.015,-0.000,0.174,-0.018,0.047,1.672,-0.249,0.279,0.000,0.000,0.111,0.093,-0.021,1.349,-0.001,-0.009,0.926
15.950,0.044,-0.059,-0.009,0.174,-0.018,0.047,1.676,-0.250,0.280,0.001,-0.001,0.099,0.093,-0.021,1.353,-0.001,-0.009,0.935
15.977,-0.019,0.010,0.029,0.174,-0.018,0.047,1.683,-0.251,0.282,-0.001,-0.001,0.097,0.093,-0.021,1.356,-0.001,-0.009,0.920
16.004,0.000,-0.000,0.010,0.174,-0.018,0.047,1.686,-0.251,0.283,-0.001,-0.001,0.097,0.093,-0.021,1.358,-0.001,-0.009,0.934
16.031,-0.028,0.088,-0.001,0.174,-0.018,0.047,1.690,-0.251,0.283,0.001,0.000,0.116,0.093,-0.021,1.362,-0.001,-0.009,0.950
16.058,0.011,-0.012,0.020,0.174,-0.018,0.048,1.697,-0.252,0.285,0.001,0.000,0.105,0.093,-0.021,1.364,-0.001,-0.009,0.898
16.085,-0.013,0.016,0.029,0.174,-0.018,0.048,1.700,-0.252,0.286,0.000,0.000,0.111,0.093,-0.021,1.366,-0.001,-0.009,0.867
16.111,0.001,0.015,0.019,0.174,-0.018,0.048,1.704,-0.253,0.287,0.000,0.000,0.109,0.093,-0.021,1.370,-0.001,-0.009,0.879
16.137,-0.016,-0.024,0.010,0.174,-0.018,0.048,1.711,-0.253,0.289,0.000,0.000,0.112,0.093,-0.021,1.373,-0.001,-0.009,0.829
16.164,-0.057,0.023,-0.001,0.174,-0.018,0.049,1.714,-0.254,0.290,0.000,-0.001,0.108,0.093,-0.021,1.375,-0.001,-0.009,0.822
16.192,0.017,0.012,-0.000,0.174,-0.018,0.049,1.721,-0.255,0.292,-0.001,0.000,0.103,0.093,-0.021,1.379,-0.001,-0.009,0.843
16.217,0.003,-0.001,-0.000,0.174,-0.018,0.049,1.725,-0.255,0.293,-0.001,0.000,0.106,0.093,-0.021,1.381,-0.001,-0.009,0.810
16.245,0.033,-0.046,0.010,0.174,-0.018,0.049,1.728,-0.255,0.294,0.000,0.000,0.117,0.093,-0.021,1.383,-0.001,-0.009,0.813
16.272,0.024,-0.035,0.010,0.174,-0.018,0.050,1.735,-0.256,0.296,-0.001,-0.001,0.099,0.093,-0.021,1.388,-0.001,-0.009,0.804
16.297,-0.040,0.082,0.019,0.174,-0.018,0.050,1.739,-0.256,0.297,-0.001,-0.001,0.086,0.093,-0.021,1.390,-0.001,-0.010,0.763
16.324,0.023,-0.031,0.030,0.174,-0.018,0.050,1.742,-0.257,0.298,0.000,-0.001,0.109,0.093,-0.021,1.392,-0.001,-0.010,0.757
16.351,0.001,0.017,0.029,0.174,-0.018,0.050,1.745,-0.257,0.299,0.000,0.000,0.116,0.093,-0.021,1.396,-0.001,-0.010,0.747
16.378,0.017,-0.023,0.020,0.174,-0.018,0.051,1.752,-0.258,0.301,0.000,-0.001,0.112,0.093,-0.021,1.398,-0.001,-0.010,0.733
16.405,-0.011,0.003,-0.010,0.174,-0.018,0.051,1.756,-0.258,0.302,0.000,0.000,0.112,0.093,-0.021,1.400,-0.001,-0.010,0.720
16.431,0.011,-0.017,0.000,0.174,-0.018,0.051,1.759,-0.259,0.303,0.000,-0.002,0.110,0.093,-0.021,1.405,-0.001,-0.010,0.704
16.457,0.015,-0.033,-0.010,0.174,-0.019,0.052,1.766,-0.259,0.305,0.000,-0.001,0.117,0.093,-0.021,1.407,-0.000,-0.010,0.725
16.484,-0.016,0.057,-0.010,0.174,-0.019,0.052,1.770,-0.260,0.306,0.000,-0.001,0.105,0.093,-0.021,1.409,-0.001,-0.009,0.731
16.512,-0.006,-0.004,-0.000,0.174,-0.019,0.052,1.777,-0.260,0.308,-0.001,-0.001,0.099,0.093,-0.021,1.413,-0.001,-0.009,0.757
16.538,-0.034,0.037,0.009,0.174,-0.019,0.052,1.780,-0.261,0.309,0.000,-0.001,0.095,0.093,-0.021,1.416,-0.001,-0.009,0.763
16.565,0.035,-0.040,-0.000,0.174,-0.019,0.052,1.784,-0.261,0.310,0.000,-0.002,0.110,0.093,-0.021,1.418,-0.001,-0.010,0.713
16.592,0.033,-0.036,0.010,0.174,-0.019,0.052,1.791,-0.262,0.312,0.000,-0.001,0.106,0.093,-0.021,1.422,-0.001,-0.010,0.707
16.617,-0.000,0.017,0.019,0.174,-0.019,0.053,1.794,-0.262,0.314,0.000,-0.001,0.090,0.093,-0.021,1.424,-0.001,-0.010,0.665
16.644,0.001,0.003,0.019,0.173,-0.019,0.053,1.798,-0.263,0.315,0.000,-0.001,0.100,0.093,-0.021,1.426,-0.001,-0.010,0.654
16.670,-0.004,-0.005,0.009,0.173,-0.018,0.053,1.801,-0.263,0.316,-0.001,-0.001,0.099,0.093,-0.021,1.430,-0.001,-0.010,0.656
16.698,-0.031,0.016,0.009,0.173,-0.018,0.053,1.808,-0.264,0.318,0.000,-0.001,0.104,0.093,-0.021,1.432,-0.001,-0.010,0.643
16.725,-0.055,0.038,-0.001,0.173,-0.018,0.054,1.811,-0.264,0.319,0.000,-0.001,0.106,0.093,-0.021,1.434,-0.001,-0.009,0.678
16.751,-0.002,-0.005,0.019,0.173,-0.018,0.054,1.818,-0.265,0.321,0.000,-0.001,0.109,0.093,-0.021,1.439,-0.001,-0.009,0.676
16.778,-0.002,-0.005,-0.001,0.172,-0.018,0.054,1.822,-0.265,0.322,0.000,-0.001,0.106,0.093,-0.021,1.441,-0.000,-0.009,0.671
16.805,0.005,-0.010,0.009,0.172,-0.018,0.054,1.825,-0.266,0.323,0.000,0.000,0.105,0.093,-0.021,1.443,-0.000,-0.009,0.651
16.832,-0.041,0.026,0.009,0.172,-0.018,0.055,1.829,-0.266,0.324,0.001,-0.001,0.122,0.093,-0.021,1.447,-0.000,-0.009,0.653
16.857,-0.024,0.038,0.009,0.171,-0.017,0.055,1.836,-0.267,0.326,0.000,-0.001,0.100,0.093,-0.021,1.449,-0.000,-0.009,0.644
16.884,0.039,-0.034,-0.000,0.171,-0.017,0.055,1.839,-0.267,0.328,0.001,-0.001,0.105,0.093,-0.021,1.451,-0.000,-0.010,0.658
16.910,0.004,0.017,0.009,0.171,-0.017,0.055,1.842,-0.267,0.329,0.001,-0.001,0.105,0.093,-0.022,1.455,-0.000,-0.010,0.673
16.936,0.027,-0.014,0.019,0.171,-0.017,0.055,1.849,-0.268,0.331,0.001,0.000,0.101,0.093,-0.022,1.457,-0.000,-0.010,0.665
16.963,-0.023,0.013,0.019,0.171,-0.017,0.056,1.853,-0.268,0.332,0.000,0.000,0.101,0.093,-0.022,1.460,-0.000,-0.010,0.669
16.990,-0.007,0.001,0.029,0.171,-0.017,0.056,1.856,-0.269,0.333,0.001,0.000,0.104,0.093,-0.022,1.464,-0.000,-0.010,0.662
17.017,-0.029,0.003,0.009,0.171,-0.017,0.056,1.863,-0.269,0.335,0.001,0.000,0.112,0.093,-0.022,1.466,-0.001,-0.010,0.634
17.043,-0.030,0.028,-0.001,0.171,-0.017,0.057,1.866,-0.270,0.336,0.001,0.000,0.109,0.093,-0.022,1.468,-0.001,-0.009,0.656
17.070,0.003,-0.009,-0.010,0.171,-0.017,0.057,1.870,-0.270,0.338,-0.001,0.000,0.100,0.093,-0.022,1.472,-0.001,-0.009,0.639
17.097,-0.020,0.009,0.009,0.171,-0.017,0.057,1.877,-0.271,0.340,-0.001,0.000,0.104,0.093,-0.022,1.474,-0.001,-0.009,0.636
17.123,0.018,-0.019,-0.000,0.170,-0.017,0.057,1.880,-0.271,0.341,0.001,0.000,0.120,0.093,-0.022,1.476,-0.000,-0.009,0.638
17.151,-0.053,0.034,0.009,0.170,-0.016,0.058,1.883,-0.271,0.342,0.001,0.000,0.119,0.093,-0.022,1.481,-0.000,-0.009,0.622
17.178,0.021,-0.009,0.009,0.170,-0.016,0.058,1.890,-0.272,0.344,0.000,-0.001,0.100,0.093,-0.022,1.483,-0.000,-0.010,0.639
17.205,0.007,-0.010,0.019,0.170,-0.016,0.058,1.894,-0.272,0.346,-0.001,-0.001,0.111,0.093,-0.022,1.485,-0.000,-0.010,0.656
17.232,-0.009,0.002,0.029,0.170,-0.016,0.058,1.897,-0.273,0.347,0.000,0.000,0.112,0.093,-0.022,1.489,-0.000,-0.010,0.652
17.256,0.042,-0.036,0.019,0.170,-0.016,0.059,1.904,-0.273,0.349,0.001,-0.001,0.112,0.093,-0.022,1.491,-0.000,-0.009,0.652
17.279,-0.003,0.031,0.009,0.170,-0.016,0.059,1.907,-0.274,0.350,0.000,0.000,0.101,0.093,-0.022,1.493,-0.001,-0.009,0.640
17.305,0.011,-0.016,-0.000,0.170,-0.016,0.059,1.911,-0.274,0.352,0.001,-0.001,0.108,0.093,-0.022,1.496,-0.001,-0.009,0.636
17.329,-0.035,0.030,0.018,0.170,-0.016,0.060,1.914,-0.274,0.353,-0.001,0.000,0.111,0.093,-0.022,1.500,-0.001,-0.009,0.619
17.358,-0.025,0.022,0.019,0.169,-0.016,0.060,1.921,-0.275,0.355,-0.001,0.000,0.110,0.093,-0.022,1.502,-0.001,-0.008,0.624
17.392,0.001,-0.008,-0.001,0.169,-0.016,0.061,1.928,-0.276,0.358,-0.001,0.000,0.105,0.093,-0.022,1.506,-0.001,-0.008,0.644
17.418,-0.059,0.027,0.038,0.169,-0.016,0.061,1.931,-0.276,0.359,0.000,0.000,0.099,0.093,-0.022,1.508,-0.001,-0.008,0.666
17.443,0.014,-0.019,0.029,0.169,-0.016,0.061,1.934,-0.276,0.360,-0.001,0.000,0.110,0.093,-0.022,1.511,-0.001,-0.009,0.687
17.470,0.003,0.029,0.028,0.169,-0.016,0.061,1.938,-0.277,0.361,0.000,0.000,0.114,0.093,-0.022,1.515,-0.001,-0.009,0.701
17.494,0.003,-0.009,0.029,0.169,-0.016,0.062,1.944,-0.277,0.364,-0.001,-0.001,0.100,0.093,-0.022,1.517,-0.000,-0.009,0.688
17.519,-0.064,0.022,0.048,0.169,-0.016,0.062,1.948,-0.278,0.365,-0.001,0.000,0.112,0.093,-0.022,1.519,-0.000,-0.009,0.667
17.543,0.025,-0.023,0.029,0.169,-0.016,0.063,1.951,-0.278,0.366,0.000,0.000,0.112,0.093,-0.022,1.521,-0.000,-0.009,0.643
17.569,-0.010,0.038,-0.000,0.169,-0.016,0.063,1.955,-0.278,0.367,0.001,-0.002,0.115,0.093,-0.022,1.526,-0.001,-0.008,0.646
17.593,0.010,-0.013,0.010,0.169,-0.016,0.064,1.961,-0.279,0.370,0.001,0.000,0.100,0.093,-0.022,1.528,-0.000,-0.008,0.652
17.618,-0.027,0.003,0.019,0.169,-0.016,0.064,1.965,-0.279,0.371,0.000,0.000,0.114,0.093,-0.022,1.530,-0.000,-0.008,0.664
17.642,-0.019,0.010,0.010,0.169,-0.016,0.064,1.968,-0.280,0.372,-0.001,0.000,0.108,0.093,-0.022,1.532,-0.000,-0.008,0.694
17.668,0.029,-0.055,0.001,0.169,-0.016,0.065,1.971,-0.280,0.374,0.000,-0.001,0.106,0.093,-0.022,1.536,-0.000,-0.008,0.689
17.691,0.003,-0.008,0.010,0.169,-0.016,0.065,1.975,-0.280,0.375,0.000,0.000,0.095,0.093,-0.022,1.539,-0.000,-0.008,0.685
17.715,0.024,-0.024,0.020,0.169,-0.017,0.066,1.982,-0.281,0.378,0.000,-0.001,0.116,0.093,-0.022,1.541,-0.000,-0.009,0.682
17.739,0.022,-0.010,0.020,0.169,-0.017,0.066,1.985,-0.281,0.379,-0.001,-0.001,0.105,0.093,-0.022,1.543,-0.000,-0.009,0.685
17.764,0.028,-0.015,0.010,0.169,-0.017,0.066,1.988,-0.281,0.380,0.000,0.000,0.105,0.093,-0.022,1.545,-0.000,-0.009,0.673
17.789,0.014,-0.016,0.020,0.169,-0.017,0.067,1.992,-0.282,0.382,0.000,-0.001,0.101,0.093,-0.022,1.549,-0.000,-0.009,0.676
17.815,-0.004,-0.000,0.020,0.169,-0.017,0.067,1.998,-0.283,0.384,-0.001,-0.001,0.111,0.093,-0.022,1.551,-0.000,-0.008,0.669
17.841,0.014,0.009,0.020,0.169,-0.017,0.068,2.002,-0.283,0.386,0.000,-0.001,0.111,0.093,-0.022,1.554,-0.000,-0.008,0.654
17.868,0.041,-0.036,0.020,0.169,-0.017,0.068,2.005,-0.283,0.387,0.000,-0.001,0.109,0.093,-0.022,1.558,-0.000,-0.008,0.653
17.894,0.007,-0.010,0.030,0.169,-0.018,0.069,2.012,-0.284,0.390,-0.001,-0.001,0.110,0.093,-0.022,1.560,-0.000,-0.009,0.662
17.921,0.013,-0.015,0.030,0.169,-0.018,0.069,2.015,-0.284,0.391,-0.001,0.000,0.106,0.093,-0.022,1.562,-0.000,-0.009,0.655
17.947,0.036,-0.033,0.010,0.169,-0.018,0.070,2.019,-0.285,0.393,-0.001,0.000,0.098,0.093,-0.022,1.567,-0.000,-0.009,0.671
17.975,-0.061,0.045,-0.000,0.170,-0.018,0.070,2.026,-0.285,0.395,-0.001,0.001,0.095,0.093,-0.022,1.569,-0.000,-0.009,0.683
18.000,0.017,-0.040,0.020,0.170,-0.018,0.071,2.029,-0.286,0.397,-0.001,0.000,0.114,0.093,-0.022,1.571,-0.000,-0.009,0.668
18.027,-0.027,0.046,0.019,0.170,-0.018,0.071,2.032,-0.286,0.398,-0.001,0.000,0.106,0.093,-0.022,1.575,-0.000,-0.009,0.682
18.052,0.015,-0.014,0.030,0.170,-0.019,0.072,2.039,-0.287,0.401,-0.001,0.000,0.103,0.093,-0.022,1.577,-0.000,-0.010,0.685
18.077,-0.048,0.026,0.039,0.170,-0.019,0.072,2.043,-0.287,0.402,0.001,0.000,0.093,0.093,-0.022,1.579,-0.000,-0.009,0.673
18.104,0.044,-0.048,0.040,0.170,-0.019,0.073,2.046,-0.288,0.404,0.001,0.000,0.112,0.093,-0.022,1.581,-0.000,-0.009,0.653
18.130,-0.046,0.035,0.039,0.170,-0.019,0.073,2.049,-0.288,0.405,0.000,0.000,0.110,0.093,-0.022,1.586,-0.000,-0.009,0.649
18.157,0.022,-0.017,0.049,0.170,-0.019,0.074,2.056,-0.289,0.408,0.000,0.000,0.105,0.093,-0.022,1.588,-0.000,-0.009,0.647
18.183,0.016,-0.025,0.040,0.170,-0.019,0.075,2.060,-0.289,0.410,0.000,0.001,0.108,0.093,-0.022,1.590,-0.000,-0.009,0.668
18.209,-0.012,-0.013,0.030,0.170,-0.020,0.075,2.063,-0.289,0.411,0.000,0.000,0.094,0.093,-0.022,1.594,0.000,-0.009,0.666
18.235,-0.006,-0.005,0.020,0.170,-0.020,0.077,2.070,-0.290,0.414,0.001,0.000,0.108,0.093,-0.022,1.596,0.000,-0.009,0.665
18.261,-0.088,0.048,0.009,0.170,-0.020,0.077,2.073,-0.291,0.416,0.000,0.000,0.097,0.093,-0.022,1.598,0.000,-0.009,0.671
18.287,-0.011,-0.012,0.039,0.170,-0.020,0.078,2.077,-0.291,0.417,0.000,0.000,0.108,0.093,-0.022,1.602,0.000,-0.009,0.670
18.313,0.008,-0.002,0.030,0.169,-0.020,0.079,2.083,-0.292,0.421,-0.001,0.000,0.101,0.093,-0.022,1.604,0.000,-0.009,0.686
18.339,0.011,-0.030,0.040,0.169,-0.020,0.079,2.087,-0.292,0.422,0.000,0.000,0.112,0.093,-0.022,1.607,0.000,-0.009,0.685
18.366,-0.027,0.026,0.039,0.169,-0.020,0.080,2.090,-0.293,0.424,0.001,0.000,0.120,0.093,-0.022,1.611,0.000,-0.009,0.688
18.394,-0.027,0.036,0.039,0.169,-0.020,0.081,2.097,-0.293,0.427,0.001,-0.001,0.106,0.093,-0.022,1.613,0.000,-0.008,0.676
18.419,0.036,-0.026,0.040,0.169,-0.020,0.082,2.100,-0.294,0.429,0.001,-0.001,0.116,0.093,-0.022,1.615,0.000,-0.008,0.667
18.447,-0.001,-0.009,0.049,0.169,-0.020,0.082,2.104,-0.294,0.430,0.000,-0.001,0.114,0.093,-0.022,1.619,0.000,-0.008,0.679
18.473,0.033,-0.024,0.010,0.169,-0.020,0.084,2.110,-0.295,0.434,0.001,-0.002,0.119,0.093,-0.022,1.621,0.000,-0.009,0.680
18.498,-0.065,0.057,0.019,0.168,-0.020,0.084,2.114,-0.295,0.435,-0.002,-0.001,0.112,0.093,-0.022,1.624,0.000,-0.009,0.691
18.526,0.039,-0.053,0.011,0.168,-0.020,0.085,2.117,-0.296,0.437,-0.001,0.000,0.097,0.093,-0.022,1.628,0.000,-0.009,0.678
18.552,0.010,-0.038,-0.000,0.168,-0.020,0.086,2.124,-0.297,0.440,-0.001,0.000,0.105,0.093,-0.022,1.630,0.000,-0.009,0.678
18.578,-0.040,0.040,-0.001,0.168,-0.020,0.087,2.127,-0.297,0.442,-0.001,-0.001,0.099,0.093,-0.022,1.632,0.001,-0.010,0.676
18.604,0.042,-0.038,-0.019,0.168,-0.020,0.087,2.131,-0.297,0.444,-0.001,0.001,0.100,0.093,-0.022,1.635,0.001,-0.010,0.676
18.630,-0.014,0.019,0.009,0.168,-0.020,0.087,2.134,-0.298,0.446,-0.001,-0.001,0.098,0.093,-0.022,1.639,0.001,-0.010,0.682
18.656,0.031,-0.030,-0.020,0.168,-0.020,0.088,2.141,-0.299,0.449,0.001,0.000,0.120,0.093,-0.022,1.641,0.001,-0.010,0.680
18.682,-0.049,0.048,-0.011,0.168,-0.020,0.088,2.144,-0.299,0.451,-0.001,0.000,0.105,0.093,-0.022,1.643,0.001,-0.009,0.695
18.709,0.041,-0.028,-0.010,0.168,-0.020,0.088,2.147,-0.299,0.453,0.000,0.000,0.101,0.093,-0.022,1.647,0.001,-0.009,0.694
18.734,0.033,-0.021,-0.020,0.168,-0.020,0.089,2.154,-0.300,0.456,-0.001,-0.001,0.111,0.093,-0.022,1.649,0.000,-0.009,0.704
18.761,0.010,-0.015,-0.030,0.168,-0.020,0.089,2.157,-0.301,0.458,-0.001,-0.001,0.094,0.092,-0.022,1.652,0.001,-0.009,0.712
18.787,-0.080,0.075,-0.031,0.168,-0.020,0.089,2.161,-0.301,0.460,0.000,-0.001,0.120,0.092,-0.022,1.656,0.001,-0.009,0.706
18.814,-0.001,0.022,-0.030,0.168,-0.020,0.088,2.167,-0.302,0.463,0.000,-0.001,0.103,0.092,-0.022,1.658,0.001,-0.010,0.710
18.839,0.036,-0.034,-0.049,0.168,-0.020,0.088,2.171,-0.302,0.465,0.001,0.000,0.120,0.092,-0.022,1.660,0.001,-0.010,0.697
18.865,-0.035,0.050,-0.021,0.168,-0.020,0.088,2.174,-0.303,0.467,-0.001,0.000,0.101,0.092,-0.022,1.664,0.001,-0.010,0.679
18.892,-0.019,-0.002,-0.010,0.168,-0.019,0.087,2.181,-0.303,0.470,-0.001,0.000,0.095,0.092,-0.022,1.666,0.001,-0.010,0.681
18.917,-0.055,0.052,-0.001,0.168,-0.019,0.087,2.184,-0.304,0.472,0.000,0.000,0.088,0.092,-0.022,1.669,0.001,-0.010,0.682
18.944,-0.001,0.008,-0.030,0.167,-0.019,0.087,2.188,-0.304,0.474,0.000,0.000,0.106,0.092,-0.022,1.671,0.001,-0.010,0.691
18.971,-0.057,0.066,-0.041,0.167,-0.019,0.086,2.191,-0.304,0.475,-0.001,0.000,0.119,0.092,-0.022,1.675,0.000,-0.009,0.696
18.998,-0.017,0.019,-0.001,0.167,-0.019,0.086,2.198,-0.305,0.479,-0.001,-0.001,0.097,0.092,-0.022,1.677,0.000,-0.009,0.692
19.026,-0.032,0.031,-0.011,0.167,-0.018,0.085,2.201,-0.306,0.481,0.001,-0.001,0.114,0.092,-0.022,1.681,0.000,-0.009,0.685
19.052,-0.067,0.060,-0.040,0.167,-0.018,0.085,2.208,-0.306,0.484,0.000,0.000,0.104,0.092,-0.022,1.683,0.000,-0.009,0.680
19.079,-0.006,0.010,-0.020,0.167,-0.018,0.084,2.211,-0.307,0.486,0.000,0.000,0.108,0.092,-0.022,1.685,0.000,-0.009,0.682
19.106,0.009,-0.003,-0.030,0.166,-0.018,0.084,2.214,-0.307,0.487,0.000,0.000,0.117,0.092,-0.022,1.689,0.000,-0.009,0.693
19.132,-0.006,-0.015,-0.020,0.166,-0.017,0.083,2.221,-0.308,0.491,0.000,0.001,0.101,0.092,-0.022,1.692,0.000,-0.010,0.680
19.157,-0.059,0.020,-0.040,0.166,-0.017,0.083,2.224,-0.308,0.492,0.000,0.001,0.111,0.092,-0.022,1.694,0.001,-0.009,0.689
19.185,-0.014,-0.018,-0.030,0.166,-0.017,0.082,2.228,-0.308,0.494,0.000,0.001,0.108,0.092,-0.022,1.696,0.001,-0.009,0.676
19.211,-0.008,0.003,-0.010,0.166,-0.017,0.082,2.231,-0.309,0.496,0.000,0.000,0.106,0.092,-0.022,1.700,0.001,-0.009,0.685
19.237,-0.002,0.010,-0.020,0.165,-0.017,0.081,2.238,-0.309,0.499,0.001,0.001,0.112,0.092,-0.022,1.702,0.001,-0.009,0.699
19.265,-0.002,0.010,-0.010,0.165,-0.017,0.080,2.241,-0.310,0.501,0.000,0.000,0.110,0.092,-0.022,1.704,0.001,-0.009,0.706
19.291,0.032,-0.020,-0.020,0.165,-0.017,0.080,2.244,-0.310,0.502,0.000,-0.001,0.101,0.092,-0.022,1.709,0.001,-0.009,0.713
19.317,-0.011,0.016,-0.040,0.165,-0.017,0.079,2.251,-0.311,0.505,0.000,0.000,0.105,0.092,-0.022,1.711,0.001,-0.009,0.710
19.343,-0.056,0.055,-0.040,0.165,-0.017,0.079,2.254,-0.311,0.507,-0.001,0.000,0.112,0.092,-0.022,1.713,0.001,-0.009,0.702
19.369,0.033,-0.045,-0.020,0.164,-0.016,0.078,2.257,-0.311,0.509,0.000,-0.001,0.106,0.092,-0.022,1.717,0.001,-0.010,0.692
19.395,0.017,-0.029,-0.039,0.164,-0.016,0.077,2.264,-0.312,0.512,0.001,-0.001,0.117,0.092,-0.022,1.719,0.001,-0.010,0.683
19.421,-0.020,-0.012,-0.030,0.164,-0.016,0.077,2.267,-0.312,0.513,0.000,-0.001,0.108,0.092,-0.022,1.722,0.001,-0.010,0.685
19.449,-0.067,0.029,-0.021,0.164,-0.016,0.076,2.270,-0.313,0.515,-0.001,-0.001,0.109,0.092,-0.022,1.726,0.001,-0.009,0.696
19.475,-0.021,0.018,-0.020,0.163,-0.016,0.075,2.277,-0.313,0.518,-0.001,0.000,0.101,0.092,-0.022,1.728,0.001,-0.009,0.702
19.502,0.008,-0.007,-0.040,0.163,-0.016,0.075,2.280,-0.314,0.519,0.000,-0.001,0.114,0.092,-0.022,1.730,0.001,-0.009,0.709
19.528,-0.048,0.052,-0.031,0.163,-0.016,0.074,2.284,-0.314,0.521,-0.001,-0.001,0.121,0.092,-0.022,1.735,0.001,-0.008,0.702
19.553,0.011,0.001,-0.010,0.162,-0.016,0.073,2.290,-0.315,0.524,-0.002,-0.001,0.104,0.092,-0.022,1.737,0.001,-0.008,0.701
19.578,0.012,-0.012,-0.030,0.162,-0.016,0.072,2.293,-0.315,0.525,-0.002,-0.001,0.103,0.092,-0.022,1.739,0.001,-0.008,0.696
19.604,0.004,-0.005,-0.030,0.162,-0.016,0.072,2.296,-0.315,0.527,-0.002,-0.001,0.104,0.092,-0.022,1.741,0.001,-0.008,0.690
19.632,-0.017,-0.001,-0.010,0.162,-0.016,0.071,2.300,-0.316,0.528,-0.001,-0.001,0.108,0.092,-0.022,1.745,0.001,-0.008,0.694
19.657,-0.013,0.010,-0.040,0.162,-0.016,0.070,2.306,-0.316,0.531,-0.001,0.000,0.098,0.092,-0.023,1.748,0.001,-0.009,0.692
19.684,0.008,0.004,-0.040,0.162,-0.016,0.070,2.309,-0.317,0.532,0.000,-0.001,0.103,0.092,-0.023,1.750,0.001,-0.009,0.704
19.711,-0.020,0.002,-0.040,0.162,-0.016,0.069,2.313,-0.317,0.534,0.000,0.000,0.114,0.092,-0.023,1.754,0.001,-0.009,0.702
19.737,-0.007,-0.019,-0.049,0.161,-0.016,0.068,2.319,-0.318,0.536,-0.001,-0.001,0.109,0.092,-0.023,1.756,0.001,-0.008,0.703
19.764,-0.022,0.007,-0.030,0.161,-0.016,0.067,2.322,-0.318,0.538,0.000,-0.001,0.106,0.092,-0.023,1.758,0.001,-0.008,0.691
19.790,0.016,-0.024,-0.039,0.161,-0.016,0.066,2.326,-0.318,0.539,0.000,-0.001,0.109,0.092,-0.023,1.763,0.001,-0.008,0.685
19.817,0.035,-0.028,-0.030,0.161,-0.016,0.065,2.332,-0.319,0.542,0.000,0.000,0.120,0.092,-0.023,1.765,0.001,-0.007,0.683
19.843,0.016,-0.002,-0.010,0.161,-0.016,0.064,2.335,-0.319,0.543,-0.001,-0.001,0.111,0.092,-0.023,1.767,0.001,-0.008,0.692
19.871,0.062,-0.039,-0.039,0.161,-0.016,0.064,2.338,-0.319,0.544,0.000,-0.001,0.106,0.092,-0.023,1.771,0.001,-0.008,0.692
19.897,-0.021,0.005,-0.030,0.161,-0.016,0.062,2.345,-0.320,0.547,-0.001,-0.001,0.094,0.092,-0.023,1.773,0.001,-0.008,0.702
19.923,0.001,-0.013,0.000,0.161,-0.017,0.062,2.348,-0.320,0.548,0.000,0.000,0.103,0.092,-0.023,1.776,0.001,-0.008,0.703
19.950,-0.016,0.028,-0.000,0.161,-0.017,0.061,2.351,-0.321,0.549,0.001,-0.001,0.117,0.092,-0.023,1.780,0.001,-0.008,0.702
19.976,0.001,-0.050,0.000,0.161,-0.017,0.060,2.358,-0.321,0.552,-0.001,-0.001,0.099,0.092,-0.023,1.782,0.001,-0.009,0.698
20.004,-0.049,0.020,0.009,0.161,-0.017,0.060,2.361,-0.322,0.553,0.000,0.000,0.101,0.092,-0.023,1.784,0.001,-0.008,0.696
20.030,0.011,-0.030,-0.010,0.161,-0.017,0.060,2.364,-0.322,0.554,0.000,-0.001,0.094,0.092,-0.023,1.788,0.001,-0.008,0.694
20.056,0.037,-0.053,0.010,0.161,-0.018,0.059,2.371,-0.323,0.556,0.001,-0.001,0.111,0.092,-0.023,1.790,0.001,-0.008,0.694
20.082,-0.007,-0.027,0.010,0.161,-0.018,0.059,2.374,-0.323,0.558,-0.001,-0.001,0.105,0.092,-0.023,1.793,0.001,-0.008,0.698
20.109,0.035,-0.023,0.010,0.161,-0.018,0.059,2.377,-0.324,0.559,0.000,-0.001,0.105,0.092,-0.023,1.797,0.001,-0.008,0.698
20.135,0.073,-0.056,0.001,0.161,-0.019,0.059,2.383,-0.324,0.561,0.000,0.000,0.110,0.092,-0.023,1.799,0.001,-0.008,0.694
20.160,0.032,-0.023,-0.010,0.161,-0.019,0.059,2.387,-0.325,0.562,0.000,0.000,0.104,0.092,-0.023,1.801,0.001,-0.008,0.699
20.187,-0.003,-0.019,0.010,0.161,-0.019,0.058,2.390,-0.325,0.563,0.000,-0.001,0.101,0.092,-0.023,1.805,0.001,-0.008,0.702
20.213,-0.017,0.033,0.019,0.162,-0.020,0.058,2.396,-0.326,0.566,-0.001,-0.001,0.088,0.092,-0.023,1.807,0.001,-0.009,0.708
20.240,0.042,-0.055,-0.009,0.162,-0.020,0.058,2.400,-0.326,0.567,-0.001,0.000,0.101,0.092,-0.023,1.809,0.002,-0.009,0.714
20.267,0.006,-0.036,0.010,0.162,-0.021,0.058,2.403,-0.327,0.568,-0.001,-0.001,0.111,0.092,-0.023,1.814,0.002,-0.009,0.707
20.292,-0.013,-0.029,0.010,0.163,-0.021,0.058,2.409,-0.327,0.570,-0.001,-0.001,0.104,0.092,-0.023,1.816,0.002,-0.009,0.710
20.317,-0.051,0.066,-0.001,0.163,-0.022,0.059,2.413,-0.328,0.572,0.000,0.000,0.099,0.092,-0.023,1.818,0.002,-0.008,0.712
20.347,-0.001,-0.041,0.020,0.163,-0.022,0.059,2.416,-0.328,0.573,-0.001,-0.001,0.108,0.092,-0.023,1.822,0.002,-0.008,0.713
20.377,0.026,-0.039,-0.019,0.163,-0.023,0.059,2.422,-0.329,0.575,0.001,0.000,0.110,0.092,-0.023,1.824,0.002,-0.008,0.717
20.407,0.021,0.002,0.010,0.163,-0.023,0.059,2.426,-0.330,0.576,-0.002,0.000,0.101,0.092,-0.023,1.828,0.002,-0.009,0.712
20.431,0.021,0.003,0.010,0.163,-0.023,0.059,2.429,-0.330,0.578,0.000,0.000,0.106,0.092,-0.023,1.830,0.002,-0.009,0.709
20.457,-0.038,0.028,-0.000,0.163,-0.024,0.059,2.435,-0.331,0.580,0.000,0.000,0.094,0.092,-0.023,1.832,0.002,-0.009,0.703
20.481,0.026,-0.027,0.020,0.163,-0.024,0.059,2.439,-0.332,0.581,0.000,0.000,0.106,0.092,-0.023,1.834,0.002,-0.009,0.707
20.506,-0.057,0.071,0.019,0.163,-0.024,0.059,2.442,-0.332,0.582,0.000,0.001,0.112,0.092,-0.023,1.839,0.002,-0.009,0.714
20.532,0.032,-0.043,-0.009,0.164,-0.024,0.059,2.445,-0.332,0.583,-0.001,0.000,0.106,0.092,-0.023,1.841,0.002,-0.010,0.725
20.559,-0.045,0.013,0.019,0.164,-0.024,0.060,2.452,-0.333,0.586,0.000,0.001,0.111,0.092,-0.023,1.843,0.002,-0.009,0.729
20.586,0.014,-0.039,0.000,0.164,-0.024,0.060,2.455,-0.334,0.587,0.001,0.000,0.100,0.092,-0.023,1.847,0.002,-0.009,0.724
20.611,-0.057,0.062,-0.001,0.164,-0.025,0.060,2.458,-0.334,0.588,0.000,0.001,0.108,0.092,-0.023,1.849,0.002,-0.009,0.728
20.637,0.009,0.003,0.020,0.163,-0.025,0.060,2.465,-0.335,0.591,0.000,0.001,0.111,0.092,-0.023,1.851,0.002,-0.009,0.721
20.664,0.010,-0.025,0.020,0.163,-0.025,0.060,2.468,-0.336,0.592,0.000,0.000,0.122,0.092,-0.023,1.853,0.002,-0.009,0.728
20.691,0.003,-0.017,0.020,0.163,-0.025,0.061,2.471,-0.336,0.593,0.000,0.000,0.104,0.092,-0.023,1.858,0.002,-0.009,0.729
20.717,0.016,-0.027,0.010,0.163,-0.025,0.061,2.478,-0.337,0.595,0.000,0.000,0.111,0.092,-0.023,1.860,0.002,-0.009,0.739
20.745,-0.051,0.074,0.009,0.163,-0.025,0.061,2.481,-0.338,0.597,0.000,0.000,0.098,0.092,-0.023,1.862,0.002,-0.009,0.744
20.771,0.027,-0.037,0.010,0.163,-0.024,0.061,2.484,-0.338,0.598,-0.001,-0.001,0.095,0.092,-0.023,1.866,0.002,-0.009,0.741
20.797,-0.002,0.003,0.010,0.162,-0.024,0.062,2.491,-0.339,0.600,-0.001,0.000,0.099,0.092,-0.023,1.868,0.002,-0.009,0.734
20.824,-0.008,-0.005,-0.000,0.162,-0.024,0.062,2.494,-0.340,0.602,0.000,-0.002,0.109,0.092,-0.023,1.870,0.002,-0.009,0.724
20.851,-0.009,0.009,0.019,0.162,-0.024,0.062,2.497,-0.340,0.603,0.000,-0.001,0.109,0.092,-0.023,1.875,0.002,-0.009,0.723
20.878,-0.056,0.062,0.019,0.162,-0.024,0.063,2.504,-0.341,0.605,0.000,-0.001,0.104,0.092,-0.023,1.877,0.002,-0.008,0.719
20.904,0.005,-0.017,0.020,0.161,-0.023,0.063,2.507,-0.342,0.607,0.000,0.000,0.117,0.092,-0.023,1.879,0.002,-0.008,0.741
20.930,-0.029,0.014,0.009,0.161,-0.023,0.063,2.510,-0.342,0.608,0.001,-0.001,0.117,0.092,-0.023,1.883,0.002,-0.008,0.739
20.956,0.001,-0.024,0.020,0.161,-0.023,0.064,2.517,-0.343,0.610,0.000,-0.001,0.103,0.092,-0.023,1.885,0.002,-0.008,0.734
20.983,-0.057,0.029,0.009,0.160,-0.023,0.064,2.520,-0.344,0.612,0.000,0.000,0.108,0.092,-0.023,1.887,0.002,-0.008,0.734
21.010,-0.007,-0.003,0.010,0.160,-0.023,0.064,2.523,-0.344,0.613,0.000,-0.001,0.090,0.092,-0.023,1.892,0.002,-0.008,0.733
21.036,0.007,-0.015,0.010,0.159,-0.023,0.065,2.530,-0.345,0.616,0.001,-0.001,0.114,0.092,-0.023,1.894,0.002,-0.008,0.736
21.064,-0.009,0.040,0.019,0.159,-0.023,0.065,2.533,-0.345,0.617,0.000,-0.001,0.106,0.092,-0.023,1.896,0.002,-0.008,0.748
21.089,0.039,-0.032,0.010,0.159,-0.022,0.065,2.536,-0.346,0.618,-0.001,0.000,0.095,0.092,-0.023,1.900,0.002,-0.009,0.750
21.115,-0.029,-0.006,0.020,0.158,-0.022,0.066,2.542,-0.347,0.621,0.000,0.000,0.087,0.092,-0.023,1.902,0.003,-0.009,0.745
21.141,0.006,-0.012,0.000,0.158,-0.022,0.066,2.545,-0.347,0.622,0.000,0.000,0.098,0.092,-0.023,1.904,0.003,-0.009,0.744
21.167,-0.048,0.051,0.009,0.158,-0.022,0.066,2.549,-0.348,0.623,0.000,0.000,0.094,0.092,-0.023,1.908,0.003,-0.008,0.749
21.194,-0.023,0.016,0.009,0.157,-0.022,0.067,2.555,-0.349,0.626,0.000,0.000,0.093,0.092,-0.023,1.910,0.003,-0.008,0.751
21.219,0.013,-0.032,0.010,0.157,-0.022,0.067,2.558,-0.349,0.627,0.000,0.000,0.106,0.092,-0.023,1.912,0.003,-0.008,0.762
21.247,-0.053,0.032,0.019,0.157,-0.022,0.067,2.561,-0.349,0.629,0.001,0.000,0.109,0.092,-0.023,1.916,0.003,-0.007,0.760
21.272,0.009,-0.013,0.020,0.157,-0.022,0.068,2.567,-0.350,0.631,0.000,0.000,0.111,0.092,-0.023,1.918,0.003,-0.007,0.766
21.298,-0.019,0.028,0.039,0.156,-0.022,0.068,2.571,-0.351,0.633,0.000,0.000,0.097,0.092,-0.023,1.920,0.003,-0.007,0.761
21.327,0.002,0.007,0.029,0.156,-0.022,0.069,2.574,-0.351,0.634,-0.001,-0.001,0.104,0.092,-0.023,1.925,0.003,-0.007,0.752
21.353,0.030,-0.081,0.040,0.156,-0.022,0.070,2.580,-0.352,0.637,0.000,-0.001,0.105,0.092,-0.023,1.927,0.003,-0.008,0.753
21.380,0.014,-0.026,0.039,0.156,-0.022,0.070,2.583,-0.352,0.638,0.001,0.000,0.100,0.092,-0.023,1.929,0.003,-0.008,0.758
21.407,0.013,-0.037,0.040,0.156,-0.022,0.071,2.586,-0.353,0.640,0.001,0.000,0.099,0.092,-0.023,1.933,0.003,-0.008,0.772
21.433,-0.021,0.023,0.039,0.156,-0.022,0.072,2.592,-0.354,0.643,0.000,0.000,0.097,0.092,-0.023,1.935,0.003,-0.008,0.781
21.459,-0.021,0.023,0.029,0.155,-0.022,0.072,2.596,-0.354,0.644,0.000,0.001,0.104,0.092,-0.023,1.937,0.003,-0.008,0.780
21.485,0.006,0.008,0.019,0.155,-0.022,0.073,2.599,-0.355,0.645,0.000,0.000,0.103,0.092,-0.023,1.939,0.003,-0.008,0.761
21.511,0.020,0.009,0.000,0.155,-0.022,0.073,2.602,-0.355,0.647,0.000,-0.001,0.105,0.092,-0.023,1.943,0.003,-0.008,0.754
21.537,-0.036,0.036,-0.000,0.155,-0.022,0.074,2.608,-0.356,0.650,-0.001,0.000,0.104,0.092,-0.023,1.945,0.003,-0.008,0.753
21.564,-0.000,0.015,-0.000,0.155,-0.022,0.075,2.611,-0.356,0.651,0.000,0.001,0.109,0.092,-0.023,1.947,0.003,-0.008,0.771
21.590,-0.036,0.077,-0.011,0.155,-0.022,0.075,2.614,-0.357,0.653,0.001,0.000,0.122,0.092,-0.023,1.951,0.003,-0.008,0.776
21.617,-0.002,-0.010,-0.029,0.154,-0.022,0.076,2.620,-0.358,0.656,0.000,0.000,0.098,0.092,-0.023,1.953,0.003,-0.008,0.775
21.642,0.005,-0.028,0.020,0.154,-0.022,0.076,2.623,-0.358,0.657,0.001,0.000,0.108,0.092,-0.023,1.955,0.003,-0.009,0.776
21.670,0.032,-0.028,0.000,0.154,-0.022,0.076,2.626,-0.359,0.659,0.000,0.000,0.098,0.092,-0.023,1.959,0.003,-0.009,0.776
21.696,0.010,-0.010,-0.019,0.154,-0.022,0.076,2.633,-0.360,0.662,0.001,0.000,0.109,0.092,-0.023,1.962,0.003,-0.009,0.772
21.721,-0.042,0.080,-0.020,0.154,-0.022,0.076,2.636,-0.360,0.663,0.000,0.000,0.098,0.092,-0.023,1.964,0.003,-0.008,0.785
21.748,0.028,-0.031,-0.029,0.154,-0.021,0.076,2.639,-0.360,0.665,0.000,0.000,0.106,0.092,-0.023,1.968,0.003,-0.008,0.779
21.774,0.036,-0.038,-0.019,0.154,-0.021,0.076,2.645,-0.361,0.668,-0.001,0.000,0.105,0.092,-0.023,1.970,0.003,-0.008,0.783
21.801,-0.005,0.003,-0.029,0.154,-0.021,0.076,2.648,-0.362,0.670,-0.001,0.000,0.101,0.092,-0.023,1.972,0.003,-0.008,0.787
21.827,-0.019,0.017,-0.030,0.154,-0.021,0.076,2.651,-0.362,0.671,-0.001,0.000,0.105,0.092,-0.023,1.976,0.003,-0.008,0.786
21.853,-0.053,0.055,-0.020,0.154,-0.021,0.075,2.657,-0.363,0.674,-0.001,0.000,0.101,0.092,-0.023,1.978,0.003,-0.008,0.790
21.879,0.015,-0.001,-0.029,0.154,-0.021,0.075,2.660,-0.363,0.676,0.000,-0.001,0.114,0.092,-0.023,1.980,0.003,-0.008,0.783
21.906,-0.006,0.020,0.019,0.154,-0.021,0.075,2.664,-0.364,0.677,-0.001,0.000,0.105,0.092,-0.023,1.985,0.003,-0.008,0.794
21.932,0.029,0.000,-0.029,0.154,-0.021,0.074,2.670,-0.365,0.680,-0.001,0.000,0.100,0.092,-0.023,1.987,0.003,-0.008,0.796
21.958,0.020,0.007,-0.029,0.154,-0.021,0.074,2.673,-0.365,0.682,0.000,0.000,0.098,0.092,-0.023,1.989,0.003,-0.008,0.791
21.985,0.020,-0.021,-0.019,0.154,-0.021,0.074,2.676,-0.365,0.683,0.000,0.000,0.095,0.092,-0.023,1.993,0.003,-0.008,0.802
22.011,-0.050,0.077,-0.030,0.154,-0.021,0.074,2.679,-0.366,0.685,0.000,0.000,0.116,0.092,-0.023,1.995,0.003,-0.007,0.812
22.037,-0.015,0.025,-0.030,0.154,-0.020,0.073,2.685,-0.367,0.687,-0.001,-0.001,0.105,0.092,-0.023,1.997,0.003,-0.007,0.812
22.064,0.025,-0.045,-0.019,0.154,-0.020,0.073,2.688,-0.367,0.689,-0.001,0.000,0.105,0.092,-0.023,1.999,0.003,-0.007,0.807
22.090,-0.002,-0.028,-0.029,0.154,-0.020,0.072,2.691,-0.368,0.690,-0.001,-0.001,0.098,0.092,-0.023,2.003,0.003,-0.007,0.803
22.117,-0.008,-0.006,-0.010,0.154,-0.020,0.071,2.697,-0.368,0.693,-0.001,-0.001,0.101,0.092,-0.023,2.005,0.003,-0.007,0.809
22.144,-0.034,0.050,-0.010,0.154,-0.020,0.071,2.700,-0.369,0.695,-0.001,-0.001,0.103,0.092,-0.023,2.008,0.003,-0.007,0.816
22.172,0.005,-0.017,0.010,0.154,-0.020,0.071,2.707,-0.370,0.697,-0.001,-0.001,0.094,0.092,-0.023,2.012,0.003,-0.007,0.817
22.196,-0.001,0.016,-0.010,0.154,-0.020,0.070,2.710,-0.370,0.699,-0.001,-0.001,0.100,0.092,-0.024,2.014,0.003,-0.007,0.824
22.222,-0.002,-0.011,0.010,0.154,-0.020,0.070,2.713,-0.370,0.700,0.000,-0.001,0.100,0.092,-0.024,2.016,0.003,-0.007,0.831
22.246,0.017,-0.005,-0.020,0.154,-0.020,0.070,2.716,-0.371,0.702,0.000,-0.001,0.103,0.092,-0.024,2.020,0.003,-0.007,0.833
22.272,-0.032,0.061,-0.010,0.154,-0.020,0.069,2.722,-0.372,0.704,-0.001,0.000,0.094,0.092,-0.024,2.022,0.003,-0.007,0.834
22.295,0.006,-0.024,-0.029,0.154,-0.020,0.069,2.725,-0.372,0.706,0.000,0.000,0.109,0.091,-0.024,2.024,0.003,-0.007,0.844
22.319,-0.006,0.017,-0.010,0.153,-0.020,0.069,2.728,-0.372,0.707,-0.001,-0.001,0.103,0.091,-0.024,2.026,0.003,-0.007,0.838
22.349,0.005,-0.053,-0.010,0.153,-0.020,0.068,2.731,-0.373,0.709,0.000,0.000,0.112,0.091,-0.024,2.030,0.003,-0.007,0.827
22.379,-0.001,-0.030,0.010,0.153,-0.020,0.068,2.737,-0.374,0.711,0.002,0.000,0.108,0.091,-0.024,2.032,0.003,-0.007,0.827
22.405,-0.013,-0.014,-0.010,0.153,-0.020,0.068,2.740,-0.374,0.713,0.000,-0.001,0.101,0.091,-0.024,2.034,0.003,-0.007,0.824
22.429,-0.025,0.042,-0.010,0.153,-0.021,0.068,2.743,-0.374,0.714,-0.001,-0.001,0.108,0.091,-0.024,2.038,0.003,-0.007,0.831
22.456,0.013,-0.027,0.000,0.153,-0.021,0.067,2.750,-0.375,0.717,-0.001,0.000,0.104,0.091,-0.024,2.040,0.003,-0.007,0.842
22.482,0.006,-0.018,0.010,0.153,-0.021,0.067,2.753,-0.376,0.718,0.000,0.000,0.105,0.091,-0.024,2.042,0.003,-0.007,0.888
22.506,0.013,-0.012,0.000,0.153,-0.021,0.067,2.756,-0.376,0.719,-0.001,0.000,0.098,0.091,-0.024,2.047,0.003,-0.007,0.884
22.529,-0.044,0.071,-0.001,0.153,-0.021,0.067,2.759,-0.376,0.721,0.000,0.000,0.103,0.091,-0.024,2.049,0.003,-0.006,0.888
22.554,-0.033,0.071,-0.011,0.153,-0.021,0.067,2.765,-0.377,0.723,0.000,0.000,0.097,0.091,-0.024,2.051,0.003,-0.006,0.890
22.577,0.047,-0.041,-0.019,0.153,-0.021,0.066,2.768,-0.378,0.725,0.000,0.000,0.114,0.091,-0.024,2.053,0.003,-0.006,0.878
22.600,-0.003,0.017,-0.010,0.153,-0.021,0.066,2.771,-0.378,0.726,-0.001,0.000,0.095,0.091,-0.024,2.055,0.003,-0.006,0.874
22.624,0.005,-0.039,0.000,0.153,-0.021,0.066,2.774,-0.379,0.727,0.000,0.000,0.105,0.091,-0.024,2.057,0.003,-0.006,0.892
22.647,-0.004,-0.054,0.000,0.153,-0.021,0.066,2.777,-0.379,0.729,0.001,0.000,0.100,0.091,-0.024,2.061,0.003,-0.006,0.900
22.672,0.018,-0.020,-0.000,0.153,-0.021,0.066,2.783,-0.380,0.731,0.001,-0.001,0.104,0.091,-0.024,2.063,0.003,-0.006,0.914
22.698,-0.012,0.067,-0.001,0.153,-0.022,0.066,2.786,-0.380,0.733,0.000,0.000,0.089,0.091,-0.024,2.065,0.003,-0.006,0.912
22.726,-0.001,-0.010,-0.000,0.153,-0.022,0.066,2.789,-0.381,0.734,-0.001,0.000,0.098,0.091,-0.024,2.069,0.003,-0.006,0.919
22.753,0.002,-0.029,0.000,0.153,-0.022,0.066,2.795,-0.382,0.737,0.000,0.000,0.115,0.091,-0.024,2.071,0.003,-0.007,0.929
22.778,-0.013,0.009,0.010,0.153,-0.022,0.066,2.799,-0.382,0.738,-0.001,0.000,0.100,0.091,-0.024,2.073,0.003,-0.007,0.937
22.803,-0.022,0.067,-0.001,0.153,-0.022,0.066,2.802,-0.382,0.739,-0.001,0.001,0.095,0.091,-0.024,2.075,0.003,-0.006,0.950
22.830,0.014,-0.016,0.010,0.152,-0.022,0.066,2.805,-0.383,0.741,0.000,0.000,0.097,0.091,-0.024,2.079,0.003,-0.006,0.945
22.857,0.019,-0.026,-0.010,0.152,-0.022,0.066,2.811,-0.384,0.743,0.001,0.000,0.109,0.091,-0.024,2.081,0.003,-0.006,0.950
22.883,0.016,0.008,-0.010,0.152,-0.022,0.066,2.814,-0.384,0.744,0.000,0.000,0.101,0.091,-0.024,2.083,0.003,-0.006,0.955
22.910,-0.003,-0.066,-0.010,0.152,-0.022,0.065,2.817,-0.385,0.746,0.000,0.000,0.104,0.091,-0.024,2.087,0.003,-0.006,0.956
22.936,-0.026,0.054,-0.001,0.152,-0.022,0.065,2.823,-0.386,0.748,0.000,0.000,0.097,0.091,-0.024,2.089,0.003,-0.006,0.967
22.963,0.021,-0.062,0.010,0.152,-0.022,0.065,2.826,-0.386,0.750,0.001,-0.001,0.108,0.091,-0.024,2.091,0.003,-0.007,0.961
22.990,-0.014,0.057,-0.001,0.152,-0.022,0.065,2.829,-0.386,0.751,-0.001,0.000,0.105,0.091,-0.024,2.095,0.003,-0.007,0.963
23.015,-0.002,-0.027,0.010,0.152,-0.022,0.065,2.835,-0.387,0.754,-0.002,0.000,0.089,0.091,-0.024,2.097,0.003,-0.007,0.956
23.043,-0.040,0.059,0.009,0.152,-0.022,0.065,2.838,-0.388,0.755,-0.002,0.000,0.101,0.091,-0.024,2.099,0.003,-0.006,0.949
23.069,-0.014,-0.044,0.010,0.152,-0.022,0.065,2.841,-0.388,0.756,-0.001,0.000,0.106,0.091,-0.024,2.104,0.003,-0.006,0.951
23.095,0.005,0.012,0.009,0.152,-0.022,0.065,2.847,-0.389,0.759,-0.001,0.000,0.104,0.091,-0.024,2.106,0.003,-0.006,0.958
23.120,-0.006,0.058,0.009,0.152,-0.022,0.066,2.850,-0.390,0.760,-0.001,0.000,0.095,0.091,-0.024,2.108,0.003,-0.005,0.964
23.147,0.022,-0.018,0.010,0.152,-0.022,0.066,2.853,-0.390,0.761,0.000,0.000,0.104,0.091,-0.024,2.112,0.003,-0.005,0.992
23.173,0.021,-0.054,0.000,0.152,-0.022,0.066,2.859,-0.391,0.764,0.000,0.000,0.108,0.091,-0.024,2.114,0.003,-0.005,0.991
23.199,-0.011,-0.036,0.010,0.152,-0.022,0.066,2.862,-0.391,0.765,0.000,0.000,0.101,0.091,-0.024,2.116,0.003,-0.006,0.997
23.225,-0.006,-0.044,0.000,0.152,-0.022,0.066,2.866,-0.392,0.767,0.001,-0.001,0.104,0.091,-0.024,2.120,0.003,-0.006,1.001
23.252,-0.037,0.115,0.009,0.152,-0.023,0.066,2.872,-0.393,0.769,0.000,-0.001,0.089,0.091,-0.024,2.122,0.003,-0.006,0.995
23.279,0.006,-0.040,0.000,0.152,-0.023,0.066,2.875,-0.393,0.771,0.000,0.000,0.115,0.091,-0.024,2.124,0.003,-0.006,1.014
23.305,-0.000,0.026,-0.000,0.152,-0.023,0.066,2.878,-0.394,0.772,0.000,0.000,0.103,0.091,-0.024,2.126,0.003,-0.006,1.029
23.331,0.000,-0.029,0.000,0.152,-0.023,0.066,2.881,-0.394,0.773,-0.001,0.000,0.101,0.091,-0.024,2.130,0.003,-0.006,1.045
23.357,-0.002,0.066,-0.010,0.151,-0.023,0.067,2.887,-0.395,0.776,0.000,0.000,0.098,0.091,-0.024,2.132,0.003,-0.006,1.044
23.383,0.017,-0.025,-0.010,0.151,-0.023,0.067,2.890,-0.395,0.777,0.000,0.000,0.099,0.091,-0.024,2.134,0.003,-0.006,1.044
23.408,0.007,0.045,-0.010,0.152,-0.023,0.067,2.893,-0.396,0.779,0.000,0.000,0.098,0.091,-0.024,2.138,0.003,-0.006,1.049
23.433,0.009,0.001,-0.010,0.152,-0.023,0.066,2.899,-0.397,0.781,0.000,0.000,0.095,0.091,-0.024,2.140,0.003,-0.006,1.033
23.459,-0.011,0.035,-0.010,0.152,-0.023,0.066,2.902,-0.397,0.783,0.001,0.000,0.101,0.091,-0.024,2.142,0.003,-0.006,1.033
23.485,0.001,-0.004,-0.010,0.152,-0.022,0.066,2.905,-0.398,0.784,0.000,0.000,0.097,0.091,-0.024,2.146,0.003,-0.006,1.042
23.512,0.017,-0.014,-0.010,0.152,-0.022,0.066,2.911,-0.399,0.787,-0.001,-0.001,0.100,0.091,-0.024,2.148,0.003,-0.006,1.043
23.537,-0.030,0.049,-0.000,0.151,-0.022,0.066,2.914,-0.399,0.788,-0.001,-0.001,0.098,0.091,-0.024,2.150,0.003,-0.006,1.046
23.565,0.004,-0.010,-0.010,0.151,-0.022,0.066,2.917,-0.399,0.789,0.000,0.000,0.109,0.091,-0.024,2.152,0.003,-0.006,1.059
23.590,0.004,-0.032,-0.009,0.151,-0.022,0.066,2.920,-0.400,0.791,0.000,-0.001,0.100,0.091,-0.024,2.156,0.003,-0.006,1.057
23.617,-0.001,0.002,0.000,0.151,-0.022,0.066,2.926,-0.401,0.793,0.001,0.000,0.105,0.091,-0.024,2.158,0.003,-0.006,1.062
23.644,-0.019,0.053,-0.020,0.151,-0.022,0.065,2.929,-0.401,0.795,0.001,0.000,0.103,0.091,-0.024,2.160,0.003,-0.006,1.069
23.670,0.005,-0.012,-0.029,0.151,-0.022,0.065,2.932,-0.402,0.796,0.000,0.000,0.093,0.091,-0.024,2.165,0.003,-0.006,1.070
23.697,-0.003,0.039,-0.020,0.151,-0.021,0.065,2.938,-0.402,0.798,0.001,0.000,0.104,0.091,-0.024,2.167,0.003,-0.006,1.070
23.723,-0.000,-0.025,-0.039,0.151,-0.021,0.065,2.941,-0.403,0.800,0.001,-0.001,0.106,0.091,-0.024,2.169,0.003,-0.006,1.061
23.750,-0.019,0.010,-0.039,0.151,-0.021,0.064,2.944,-0.403,0.801,0.000,0.000,0.101,0.091,-0.024,2.173,0.003,-0.006,1.079
23.775,-0.013,-0.043,-0.009,0.151,-0.021,0.064,2.950,-0.404,0.804,0.000,0.000,0.094,0.091,-0.024,2.175,0.003,-0.006,1.076
23.802,-0.001,-0.003,-0.039,0.151,-0.021,0.063,2.953,-0.405,0.805,0.001,0.001,0.098,0.091,-0.024,2.177,0.003,-0.006,1.102
23.829,-0.015,0.067,-0.020,0.151,-0.021,0.063,2.956,-0.405,0.806,-0.001,0.000,0.105,0.091,-0.024,2.181,0.003,-0.006,1.114
23.855,0.017,0.003,-0.039,0.151,-0.020,0.062,2.962,-0.406,0.809,0.000,0.000,0.109,0.091,-0.024,2.183,0.003,-0.006,1.123
23.883,-0.009,-0.049,-0.039,0.151,-0.020,0.062,2.965,-0.406,0.810,0.000,0.000,0.106,0.091,-0.024,2.185,0.003,-0.006,1.107
23.909,0.004,-0.010,-0.039,0.151,-0.020,0.061,2.968,-0.407,0.811,0.000,0.000,0.097,0.091,-0.024,2.189,0.003,-0.006,1.075
23.935,-0.004,0.023,-0.029,0.151,-0.020,0.060,2.974,-0.407,0.814,0.000,0.000,0.109,0.091,-0.024,2.191,0.003,-0.005,1.060
23.960,-0.008,0.029,-0.039,0.150,-0.020,0.060,2.977,-0.408,0.815,-0.001,0.000,0.103,0.091,-0.024,2.193,0.003,-0.005,1.061
23.988,0.022,-0.044,-0.039,0.150,-0.020,0.059,2.980,-0.408,0.816,0.000,0.000,0.100,0.091,-0.024,2.197,0.003,-0.005,1.041
24.013,-0.011,0.013,-0.029,0.150,-0.019,0.058,2.986,-0.409,0.818,-0.001,0.000,0.111,0.091,-0.024,2.199,0.003,-0.005,1.057
24.039,-0.014,-0.000,-0.049,0.150,-0.019,0.057,2.990,-0.409,0.819,-0.001,0.000,0.106,0.091,-0.024,2.201,0.003,-0.005,1.064
24.066,-0.008,0.048,-0.030,0.150,-0.019,0.057,2.993,-0.410,0.821,0.000,0.000,0.109,0.091,-0.024,2.205,0.003,-0.005,1.065
24.092,-0.001,0.040,-0.049,0.150,-0.018,0.056,2.999,-0.411,0.823,-0.002,0.000,0.099,0.091,-0.024,2.207,0.003,-0.005,1.064
24.118,0.020,-0.003,-0.039,0.150,-0.018,0.055,3.002,-0.411,0.824,0.000,-0.001,0.110,0.091,-0.024,2.210,0.003,-0.005,1.084
24.145,0.017,-0.038,-0.049,0.150,-0.018,0.054,3.005,-0.411,0.825,-0.001,0.000,0.108,0.091,-0.024,2.212,0.003,-0.005,1.102
24.170,0.003,-0.031,-0.029,0.150,-0.018,0.054,3.008,-0.412,0.826,0.000,-0.001,0.095,0.091,-0.024,2.216,0.003,-0.005,1.092
24.196,-0.026,0.028,-0.039,0.150,-0.018,0.052,3.014,-0.412,0.828,0.000,-0.001,0.101,0.091,-0.024,2.218,0.003,-0.005,1.098
24.221,-0.003,-0.016,-0.049,0.150,-0.018,0.052,3.016,-0.413,0.829,0.000,-0.001,0.110,0.091,-0.024,2.220,0.003,-0.005,1.083
24.249,-0.005,0.045,-0.030,0.150,-0.018,0.051,3.019,-0.413,0.830,0.000,0.000,0.125,0.091,-0.024,2.224,0.003,-0.004,1.047
24.274,-0.018,-0.028,-0.019,0.150,-0.018,0.050,3.025,-0.414,0.832,-0.002,-0.001,0.111,0.091,-0.024,2.226,0.003,-0.004,1.044
24.300,-0.042,0.014,-0.029,0.149,-0.018,0.049,3.028,-0.414,0.833,-0.002,0.000,0.114,0.091,-0.024,2.228,0.003,-0.004,1.036
24.327,-0.012,-0.013,-0.019,0.149,-0.018,0.048,3.031,-0.414,0.834,0.000,-0.001,0.104,0.091,-0.024,2.233,0.003,-0.005,1.025
24.354,0.002,-0.035,-0.010,0.149,-0.018,0.047,3.037,-0.415,0.836,0.001,-0.001,0.109,0.091,-0.024,2.235,0.003,-0.005,1.044
24.379,-0.037,0.034,-0.010,0.149,-0.018,0.046,3.040,-0.415,0.837,-0.001,0.000,0.097,0.091,-0.024,2.237,0.003,-0.005,1.069
24.406,0.016,-0.024,-0.059,0.149,-0.017,0.046,3.043,-0.416,0.838,-0.002,0.000,0.097,0.091,-0.024,2.241,0.003,-0.005,1.097
24.432,0.003,-0.058,-0.049,0.148,-0.017,0.045,3.049,-0.417,0.840,0.000,0.000,0.104,0.091,-0.024,2.243,0.003,-0.005,1.091
24.457,-0.011,-0.010,-0.049,0.148,-0.017,0.044,3.052,-0.417,0.841,0.000,0.000,0.105,0.091,-0.024,2.245,0.004,-0.006,1.078
24.483,-0.020,0.046,-0.039,0.148,-0.017,0.043,3.055,-0.417,0.842,0.000,0.000,0.094,0.091,-0.024,2.248,0.004,-0.005,1.062
24.509,0.008,0.017,-0.000,0.148,-0.017,0.043,3.058,-0.418,0.842,-0.001,0.000,0.094,0.091,-0.024,2.252,0.004,-0.005,1.048
24.536,0.005,-0.042,0.010,0.148,-0.017,0.041,3.064,-0.418,0.844,-0.001,0.000,0.106,0.091,-0.024,2.254,0.003,-0.005,1.049
24.563,-0.004,-0.023,0.020,0.148,-0.017,0.041,3.067,-0.419,0.845,-0.001,0.000,0.108,0.091,-0.024,2.256,0.003,-0.005,1.026
24.590,-0.019,0.002,0.010,0.148,-0.017,0.041,3.070,-0.419,0.846,-0.001,-0.001,0.103,0.091,-0.024,2.260,0.003,-0.005,0.997
24.615,-0.020,0.043,0.019,0.148,-0.017,0.040,3.076,-0.420,0.847,-0.001,0.000,0.106,0.091,-0.024,2.262,0.004,-0.005,0.995
24.640,-0.004,0.017,0.020,0.147,-0.017,0.040,3.079,-0.420,0.848,0.000,0.000,0.110,0.091,-0.024,2.264,0.004,-0.005,1.000
24.667,-0.002,-0.005,0.039,0.147,-0.017,0.040,3.082,-0.420,0.849,-0.001,0.000,0.110,0.091,-0.024,2.268,0.004,-0.005,1.035
24.692,-0.017,0.025,0.010,0.147,-0.017,0.040,3.088,-0.421,0.851,0.000,-0.001,0.098,0.091,-0.024,2.270,0.004,-0.005,1.038
24.718,0.026,-0.047,-0.019,0.147,-0.017,0.040,3.091,-0.421,0.851,-0.001,0.000,0.103,0.091,-0.024,2.273,0.004,-0.006,1.029
24.745,0.025,-0.025,0.000,0.147,-0.017,0.040,3.094,-0.422,0.852,0.000,-0.001,0.105,0.091,-0.024,2.275,0.004,-0.006,0.985
24.773,0.015,-0.025,-0.010,0.147,-0.017,0.040,3.099,-0.422,0.854,0.001,-0.002,0.108,0.091,-0.024,2.279,0.004,-0.005,0.967
24.798,-0.005,0.052,-0.000,0.146,-0.017,0.040,3.102,-0.423,0.855,-0.001,-0.001,0.097,0.091,-0.024,2.281,0.004,-0.005,0.955
24.825,0.003,-0.027,0.020,0.146,-0.017,0.040,3.105,-0.423,0.855,0.000,0.000,0.112,0.091,-0.024,2.285,0.004,-0.005,0.928
24.850,0.008,0.013,0.029,0.146,-0.017,0.040,3.108,-0.423,0.856,-0.001,0.000,0.117,0.091,-0.024,2.287,0.003,-0.005,0.926
24.876,-0.025,0.010,0.029,0.146,-0.017,0.040,3.114,-0.424,0.858,-0.001,0.001,0.104,0.091,-0.024,2.289,0.004,-0.004,0.903
24.903,-0.034,0.053,0.049,0.146,-0.017,0.040,3.117,-0.424,0.859,-0.001,-0.001,0.099,0.091,-0.024,2.291,0.004,-0.004,0.908
24.929,-0.015,-0.030,0.039,0.146,-0.017,0.040,3.120,-0.425,0.859,0.000,0.000,0.089,0.091,-0.024,2.296,0.004,-0.005,0.891
24.957,-0.037,-0.012,0.049,0.146,-0.017,0.041,3.126,-0.425,0.861,-0.002,-0.001,0.103,0.091,-0.024,2.298,0.004,-0.004,0.912
24.983,-0.024,-0.013,0.039,0.146,-0.017,0.041,3.129,-0.426,0.862,-0.001,-0.001,0.097,0.091,-0.024,2.300,0.004,-0.004,0.915
25.010,-0.041,0.086,0.029,0.145,-0.017,0.042,3.132,-0.426,0.863,0.001,-0.001,0.105,0.091,-0.024,2.304,0.004,-0.003,0.890
25.035,-0.025,0.032,0.019,0.145,-0.017,0.043,3.137,-0.427,0.864,0.001,0.000,0.093,0.091,-0.025,2.306,0.004,-0.003,0.903
25.061,0.004,-0.034,0.039,0.145,-0.017,0.043,3.140,-0.427,0.865,0.002,0.000,0.109,0.091,-0.025,2.308,0.004,-0.003,0.852
25.088,-0.017,0.046,0.019,0.144,-0.017,0.044,3.143,-0.427,0.866,0.001,0.001,0.108,0.091,-0.025,2.312,0.004,-0.003,0.826
25.113,0.026,-0.029,0.020,0.144,-0.017,0.045,3.149,-0.428,0.868,0.000,0.001,0.104,0.091,-0.025,2.314,0.004,-0.003,0.820
25.139,-0.008,0.006,0.010,0.144,-0.017,0.045,3.152,-0.428,0.869,0.000,0.000,0.105,0.091,-0.025,2.316,0.004,-0.003,0.801
25.165,-0.026,0.000,0.010,0.144,-0.017,0.045,3.155,-0.429,0.870,-0.001,0.000,0.106,0.091,-0.025,2.320,0.004,-0.003,0.834
25.193,0.013,-0.039,0.030,0.143,-0.016,0.046,3.160,-0.429,0.871,0.000,-0.001,0.112,0.091,-0.025,2.322,0.004,-0.003,0.817
25.218,-0.007,-0.003,0.029,0.143,-0.016,0.047,3.163,-0.430,0.872,-0.001,0.000,0.101,0.091,-0.025,2.324,0.004,-0.003,0.842
25.245,0.011,-0.023,0.020,0.143,-0.016,0.047,3.166,-0.430,0.873,-0.001,0.000,0.110,0.091,-0.025,2.327,0.004,-0.003,0.821
25.270,0.006,-0.002,0.039,0.143,-0.017,0.048,3.169,-0.430,0.874,-0.001,0.000,0.092,0.091,-0.025,2.331,0.004,-0.003,0.814
25.296,0.011,-0.038,0.039,0.143,-0.016,0.049,3.175,-0.431,0.876,0.000,0.000,0.108,0.091,-0.025,2.333,0.004,-0.002,0.812
25.321,-0.001,0.016,-0.000,0.142,-0.016,0.049,3.178,-0.431,0.877,0.000,0.000,0.098,0.091,-0.025,2.335,0.004,-0.002,0.812
25.348,0.012,-0.012,0.000,0.142,-0.016,0.050,3.180,-0.432,0.878,-0.002,-0.001,0.106,0.090,-0.025,2.339,0.004,-0.002,0.799
25.374,0.035,-0.021,0.000,0.142,-0.016,0.050,3.186,-0.432,0.880,0.000,0.000,0.117,0.090,-0.025,2.341,0.004,-0.002,0.746
25.399,0.040,-0.051,0.030,0.142,-0.016,0.051,3.189,-0.433,0.881,0.000,0.000,0.112,0.090,-0.025,2.343,0.004,-0.003,0.741
25.426,-0.010,-0.018,0.029,0.142,-0.016,0.051,3.192,-0.433,0.882,0.001,0.000,0.105,0.090,-0.025,2.347,0.004,-0.003,0.708
25.452,-0.041,0.037,0.019,0.142,-0.016,0.052,3.198,-0.434,0.884,0.000,-0.001,0.097,0.090,-0.025,2.349,0.004,-0.003,0.728
25.478,-0.006,0.029,0.029,0.142,-0.016,0.052,3.200,-0.434,0.885,-0.001,0.000,0.097,0.090,-0.025,2.352,0.004,-0.002,0.731
25.504,-0.010,-0.006,0.000,0.142,-0.016,0.053,3.203,-0.434,0.886,0.000,0.000,0.100,0.090,-0.025,2.354,0.004,-0.002,0.673
25.530,-0.007,-0.031,0.010,0.142,-0.016,0.053,3.206,-0.435,0.887,-0.001,-0.001,0.109,0.090,-0.025,2.358,0.004,-0.003,0.633
25.556,-0.041,0.029,-0.000,0.142,-0.016,0.054,3.212,-0.435,0.889,0.000,0.000,0.105,0.090,-0.025,2.360,0.004,-0.002,0.592
25.583,-0.016,0.012,-0.000,0.142,-0.016,0.054,3.215,-0.436,0.891,0.001,0.000,0.105,0.090,-0.025,2.362,0.004,-0.002,0.594
25.609,0.005,0.008,-0.000,0.141,-0.016,0.054,3.217,-0.436,0.892,0.002,-0.001,0.109,0.090,-0.025,2.366,0.004,-0.002,0.619
25.635,-0.009,0.018,-0.020,0.141,-0.016,0.055,3.223,-0.437,0.894,-0.001,0.000,0.098,0.090,-0.025,2.368,0.004,-0.002,0.655
25.663,0.049,-0.051,-0.019,0.141,-0.017,0.055,3.226,-0.437,0.895,0.000,0.001,0.099,0.090,-0.025,2.370,0.004,-0.002,0.671
25.688,-0.012,-0.003,0.000,0.141,-0.017,0.055,3.229,-0.437,0.896,0.001,0.000,0.103,0.090,-0.025,2.374,0.004,-0.002,0.691
25.716,-0.018,0.003,0.010,0.141,-0.017,0.055,3.234,-0.438,0.898,0.000,0.000,0.110,0.090,-0.025,2.376,0.004,-0.002,0.662
25.743,-0.018,0.003,0.000,0.141,-0.017,0.055,3.237,-0.438,0.899,0.001,-0.001,0.108,0.090,-0.025,2.378,0.004,-0.002,0.636
25.769,0.019,-0.024,-0.010,0.141,-0.017,0.055,3.240,-0.439,0.900,0.001,-0.001,0.103,0.090,-0.025,2.383,0.004,-0.002,0.561
25.796,0.021,-0.019,0.000,0.141,-0.017,0.055,3.246,-0.439,0.903,0.001,-0.001,0.108,0.090,-0.025,2.385,0.004,-0.002,0.486
25.821,0.008,-0.001,0.000,0.141,-0.018,0.055,3.248,-0.440,0.904,0.001,0.000,0.106,0.090,-0.025,2.387,0.004,-0.002,0.470
25.848,-0.036,0.051,-0.000,0.141,-0.018,0.055,3.251,-0.440,0.905,-0.001,-0.001,0.109,0.090,-0.025,2.391,0.004,-0.002,0.444
25.875,-0.042,0.050,-0.000,0.141,-0.018,0.055,3.257,-0.441,0.907,0.001,0.000,0.101,0.090,-0.025,2.393,0.004,-0.001,0.458
25.900,0.048,-0.053,-0.010,0.141,-0.018,0.055,3.260,-0.441,0.908,0.000,-0.001,0.114,0.090,-0.025,2.395,0.004,-0.001,0.512
25.926,0.041,-0.035,-0.010,0.141,-0.018,0.055,3.263,-0.441,0.909,0.001,0.000,0.106,0.090,-0.025,2.399,0.004,-0.002,0.463
25.952,0.039,-0.071,-0.010,0.141,-0.018,0.055,3.268,-0.442,0.911,0.001,-0.001,0.119,0.090,-0.025,2.402,0.004,-0.002,0.459
25.978,0.035,-0.058,-0.019,0.142,-0.018,0.055,3.271,-0.443,0.913,0.002,-0.001,0.111,0.090,-0.025,2.404,0.004,-0.002,0.451
26.004,0.025,-0.027,0.000,0.142,-0.019,0.055,3.274,-0.443,0.914,0.000,-0.001,0.110,0.090,-0.025,2.406,0.004,-0.003,0.364
26.032,0.013,-0.001,0.010,0.142,-0.019,0.055,3.280,-0.444,0.916,-0.001,-0.002,0.109,0.090,-0.025,2.410,0.004,-0.003,0.380
26.057,-0.006,-0.025,0.010,0.142,-0.019,0.055,3.282,-0.444,0.917,0.000,-0.002,0.104,0.090,-0.025,2.412,0.004,-0.003,0.347
26.083,0.055,-0.043,0.000,0.143,-0.020,0.055,3.285,-0.444,0.918,0.000,-0.001,0.105,0.090,-0.025,2.414,0.005,-0.003,0.343
26.111,0.036,-0.007,0.010,0.143,-0.020,0.055,3.288,-0.445,0.919,0.000,0.000,0.106,0.090,-0.025,2.419,0.005,-0.003,0.369
26.137,-0.021,0.046,-0.010,0.143,-0.021,0.055,3.294,-0.446,0.921,0.000,-0.001,0.099,0.090,-0.025,2.421,0.005,-0.004,0.363
26.164,-0.038,0.041,-0.010,0.144,-0.021,0.055,3.297,-0.446,0.922,0.000,-0.001,0.098,0.090,-0.025,2.423,0.004,-0.003,0.370
26.190,0.044,-0.044,-0.010,0.144,-0.021,0.055,3.300,-0.446,0.924,0.001,-0.001,0.097,0.090,-0.025,2.427,0.004,-0.003,0.311
26.217,0.043,-0.019,-0.019,0.144,-0.021,0.055,3.305,-0.447,0.926,0.000,0.000,0.111,0.090,-0.025,2.429,0.004,-0.003,0.250
26.243,-0.012,-0.005,0.010,0.145,-0.021,0.055,3.308,-0.448,0.927,0.000,0.000,0.101,0.090,-0.025,2.431,0.004,-0.003,0.211
26.270,0.041,-0.086,0.020,0.145,-0.021,0.055,3.311,-0.448,0.928,0.002,0.000,0.110,0.091,-0.025,2.435,0.004,-0.003,0.226
26.295,-0.041,0.052,-0.010,0.145,-0.022,0.055,3.317,-0.449,0.930,0.000,0.000,0.105,0.091,-0.025,2.437,0.004,-0.003,0.224
26.320,0.044,0.002,-0.020,0.146,-0.022,0.055,3.320,-0.449,0.931,0.001,0.000,0.116,0.091,-0.025,2.440,0.004,-0.004,0.208
