time,acc_x,acc_y,acc_z,vel_x,vel_y,vel_z,pos_x,pos_y,pos_z,rad_vel_x,rad_vel_y,rad_vel_z,rad_gyro_x,rad_gyro_y,rad_gyro_z,rad_mag_x,rad_mag_y,rad_mag_z
0.081,0.000,0.000,0.000,0.000,0.000,0.000,0.000,0.000,0.000,0.000,0.000,0.000,-0.000,-0.000,-0.000,-0.000,-0.000,-0.000
0.283,3.006,0.412,0.341,0.000,0.000,0.000,0.000,0.000,0.000,2.491,-0.286,0.310,-0.448,-0.033,1.740,-0.448,-0.033,1.740
0.357,3.836,-0.534,-0.656,0.000,0.000,0.000,0.000,0.000,0.000,2.491,-0.286,0.310,-0.581,-0.060,1.655,-0.581,-0.060,1.655
0.458,4.932,-0.788,-1.278,0.000,0.000,0.000,0.000,0.000,0.000,-0.165,-0.062,0.117,-0.696,-0.098,1.578,-0.696,-0.098,1.578
0.508,4.289,-0.436,-1.017,0.000,0.000,0.000,0.000,0.000,0.000,-0.057,-0.031,0.115,-0.648,-0.090,1.626,-0.648,-0.090,1.626
0.553,3.825,-0.182,-1.110,0.000,0.000,0.000,0.000,0.000,0.000,-0.037,0.007,0.110,-0.569,-0.079,1.701,-0.569,-0.079,1.701
0.604,3.527,-0.017,-0.724,0.000,0.000,0.000,0.000,0.000,0.000,-0.155,0.108,0.072,-0.532,-0.072,1.723,-0.532,-0.072,1.723
0.649,3.425,-0.135,-0.266,0.000,0.000,0.000,0.000,0.000,0.000,-0.132,0.079,0.038,-0.493,-0.061,1.743,-0.493,-0.061,1.743
0.691,2.592,0.283,-0.293,0.000,0.000,0.000,0.000,0.000,0.000,-0.084,0.029,0.042,-0.429,-0.021,1.786,-0.429,-0.021,1.786
0.736,2.045,0.673,-0.186,0.000,0.000,0.000,0.000,0.000,0.000,-0.028,0.002,0.013,-0.379,0.006,1.828,-0.379,0.006,1.828
0.782,1.666,0.783,0.101,0.000,0.000,0.000,0.000,0.000,0.000,-0.092,-0.012,-0.027,-0.336,0.024,1.873,-0.336,0.024,1.873
0.823,1.286,0.900,0.227,0.000,0.000,0.000,0.000,0.000,0.000,-0.068,0.032,-0.022,-0.300,0.039,1.915,-0.300,0.039,1.915
0.863,0.978,0.883,0.221,0.000,0.000,0.000,0.000,0.000,0.000,-0.023,0.002,-0.024,-0.272,0.051,1.923,-0.272,0.051,1.923
0.901,0.690,0.835,0.100,0.000,0.000,0.000,0.000,0.000,0.000,-0.010,0.004,-0.033,-0.247,0.059,1.933,-0.247,0.059,1.933
0.937,0.486,0.753,0.065,0.000,0.000,0.000,0.000,0.000,0.000,-0.012,0.016,-0.028,-0.228,0.067,1.952,-0.228,0.067,1.952
0.969,0.320,0.851,0.065,0.000,0.000,0.000,0.000,0.000,0.000,-0.023,0.009,-0.009,-0.210,0.073,1.974,-0.210,0.073,1.974
1.004,0.290,0.852,0.178,0.000,0.000,0.000,0.000,0.000,0.000,-0.044,-0.009,-0.006,-0.206,0.067,1.977,-0.206,0.067,1.977
1.037,0.105,0.804,0.111,0.000,0.000,0.000,0.000,0.000,0.000,-0.031,-0.012,-0.007,-0.206,0.067,1.977,-0.192,0.070,1.986
1.066,0.014,0.828,0.173,0.000,0.000,0.000,0.000,0.000,0.000,-0.045,-0.009,-0.009,-0.206,0.067,1.977,-0.181,0.078,1.993
1.093,-0.193,0.902,0.150,0.000,0.000,0.000,0.000,0.000,0.000,-0.051,-0.006,-0.009,-0.206,0.067,1.977,-0.168,0.079,2.009
1.122,-0.121,0.731,-0.016,0.000,0.000,0.000,0.000,0.000,0.000,-0.042,0.002,-0.012,-0.206,0.067,1.977,-0.166,0.073,2.001
1.150,-0.193,0.840,0.395,0.000,0.000,0.000,0.000,0.000,0.000,-0.100,0.026,-0.010,-0.206,0.067,1.977,-0.154,0.075,2.016
1.178,-0.320,0.764,0.308,0.000,0.000,0.000,0.000,0.000,0.000,-0.048,0.045,-0.009,-0.206,0.067,1.977,-0.145,0.083,2.018
1.206,-0.319,0.631,0.010,0.000,0.000,0.000,0.000,0.000,0.000,-0.015,0.029,-0.012,-0.206,0.067,1.977,-0.146,0.077,2.015
1.234,-0.373,0.651,0.217,0.000,0.000,0.000,0.000,0.000,0.000,-0.053,0.029,-0.015,-0.206,0.067,1.977,-0.138,0.079,2.021
1.262,-0.415,0.661,0.237,0.000,0.000,0.000,0.000,0.000,0.000,-0.068,0.013,-0.011,-0.206,0.067,1.977,-0.130,0.085,2.038
1.291,-0.441,0.620,0.114,0.000,0.000,0.000,0.000,0.000,0.000,-0.027,-0.015,-0.012,-0.206,0.067,1.977,-0.124,0.083,2.051
1.329,-0.477,0.532,0.218,0.000,0.000,0.000,0.000,0.000,0.000,-0.043,-0.010,-0.017,-0.206,0.067,1.977,-0.118,0.082,2.072
1.363,-0.446,0.437,0.191,0.000,0.000,0.000,0.000,0.000,0.000,-0.029,0.027,-0.009,-0.206,0.067,1.977,-0.120,0.077,2.077
1.397,-0.563,0.465,-0.048,0.000,0.000,0.000,0.000,0.000,0.000,-0.009,0.023,0.001,-0.206,0.067,1.977,-0.117,0.076,2.077
1.426,-0.582,0.556,0.072,0.000,0.000,0.000,0.000,0.000,0.000,-0.061,-0.006,-0.015,-0.206,0.067,1.977,-0.111,0.080,2.064
1.457,-0.543,0.499,0.201,0.000,0.000,0.000,0.000,0.000,0.000,-0.062,0.037,-0.012,-0.206,0.067,1.977,-0.106,0.080,2.057
1.487,-0.508,0.418,0.243,0.000,0.000,0.000,0.000,0.000,0.000,-0.051,0.045,-0.015,-0.206,0.067,1.977,-0.108,0.076,2.037
1.518,-0.537,0.384,0.105,0.000,0.000,0.000,0.000,0.000,0.000,-0.029,0.021,-0.012,-0.206,0.067,1.977,-0.104,0.076,2.039
1.549,-0.556,0.370,0.026,0.000,0.000,0.000,0.000,0.000,0.000,-0.005,0.004,-0.012,-0.206,0.067,1.977,-0.102,0.075,2.032
1.576,-0.592,0.343,0.004,0.000,0.000,0.000,0.000,0.000,0.000,-0.001,-0.007,-0.007,-0.206,0.067,1.977,-0.097,0.078,2.033
1.606,-0.598,0.366,-0.082,0.000,0.000,0.000,0.000,0.000,0.000,-0.005,0.032,0.001,-0.206,0.067,1.977,-0.101,0.074,2.028
1.636,-0.642,0.381,-0.151,0.000,0.000,0.000,0.000,0.000,0.000,0.005,0.024,-0.002,-0.206,0.067,1.977,-0.101,0.073,2.032
1.663,-0.673,0.353,0.054,0.000,0.000,0.000,0.000,0.000,0.000,-0.034,0.018,-0.038,-0.206,0.067,1.977,-0.096,0.076,2.039
1.690,-0.691,0.197,0.218,0.000,0.000,0.000,0.000,0.000,0.000,-0.035,0.042,-0.053,-0.206,0.067,1.977,-0.095,0.074,2.040
1.718,-0.670,0.154,0.131,0.000,0.000,0.000,0.000,0.000,0.000,-0.029,0.076,-0.048,-0.206,0.067,1.977,-0.099,0.072,2.035
1.746,-0.723,0.085,0.096,0.000,0.000,0.000,0.000,0.000,0.000,-0.044,0.103,-0.032,-0.206,0.067,1.977,-0.095,0.077,2.015
1.771,-0.647,0.167,0.261,0.000,0.000,0.000,0.000,0.000,0.000,-0.040,0.068,-0.046,-0.206,0.067,1.977,-0.094,0.079,2.013
1.800,-0.633,0.045,0.095,0.000,0.000,0.000,0.000,0.000,0.000,0.004,0.055,-0.061,-0.206,0.067,1.977,-0.099,0.077,2.003
1.826,-0.787,0.056,-0.092,0.000,0.000,0.000,0.000,0.000,0.000,0.028,-0.024,-0.088,-0.206,0.067,1.977,-0.096,0.080,2.017
1.851,-0.772,0.251,-0.074,0.000,0.000,0.000,0.000,0.000,0.000,0.013,-0.093,-0.099,-0.206,0.067,1.977,-0.099,0.076,2.016
1.877,-0.651,0.221,0.028,0.000,0.000,0.000,0.000,0.000,0.000,0.007,-0.125,-0.111,-0.206,0.067,1.977,-0.103,0.070,2.021
1.903,-0.580,0.286,0.138,0.000,0.000,0.000,0.000,0.000,0.000,-0.033,-0.089,-0.114,-0.206,0.067,1.977,-0.100,0.069,2.022
1.929,-0.675,0.163,0.119,0.000,0.000,0.000,0.000,0.000,0.000,-0.021,-0.046,-0.092,-0.206,0.067,1.977,-0.101,0.066,2.023
1.955,-0.772,-0.079,-0.193,0.000,0.000,0.000,0.000,0.000,0.000,0.033,-0.032,-0.072,-0.206,0.067,1.977,-0.108,0.062,2.022
1.981,-0.984,-0.155,-0.450,0.000,0.000,0.000,0.000,0.000,0.000,0.115,-0.031,-0.073,-0.206,0.067,1.977,-0.108,0.063,2.022
2.007,-1.035,-0.109,-0.659,0.000,0.000,0.000,0.000,0.000,0.000,0.147,-0.043,-0.029,-0.206,0.067,1.977,-0.121,0.059,2.022
2.032,-0.950,0.096,-0.288,-0.004,-0.000,-0.002,-0.000,-0.000,-0.000,0.064,-0.087,-0.031,-0.206,0.067,1.977,-0.130,0.054,2.013
2.064,-0.808,0.177,0.033,-0.009,0.000,-0.003,-0.000,0.000,-0.000,-0.159,-0.160,-0.021,-0.206,0.067,1.977,-0.128,0.052,2.007
2.092,-0.802,0.379,0.849,-0.020,0.002,-0.003,-0.001,0.000,-0.000,-0.247,-0.165,0.004,-0.206,0.067,1.977,-0.122,0.043,2.004
2.117,-0.872,0.275,0.622,-0.028,0.004,-0.001,-0.001,0.000,-0.000,-0.259,-0.121,0.034,-0.207,0.066,1.977,-0.123,0.036,2.001
2.142,-1.074,0.006,0.632,-0.038,0.006,0.003,-0.002,0.000,-0.000,-0.230,-0.027,0.046,-0.207,0.066,1.977,-0.116,0.036,2.001
2.167,-1.091,-0.307,0.460,-0.048,0.008,0.007,-0.003,0.000,-0.000,-0.170,0.083,0.056,-0.208,0.065,1.977,-0.121,0.035,1.991
2.192,-1.205,-0.174,-0.111,-0.069,0.008,0.014,-0.005,0.001,0.000,-0.116,0.087,0.095,-0.209,0.065,1.977,-0.124,0.036,1.989
2.217,-1.269,-0.076,-0.223,-0.084,0.008,0.018,-0.007,0.001,0.001,-0.045,0.075,0.122,-0.210,0.065,1.977,-0.121,0.038,1.982
2.242,-1.096,-0.022,-0.110,-0.101,0.008,0.021,-0.009,0.001,0.001,-0.010,0.049,0.151,-0.210,0.065,1.977,-0.130,0.035,1.973
2.267,-1.185,0.183,-0.040,-0.117,0.008,0.023,-0.011,0.001,0.001,0.022,-0.032,0.076,-0.212,0.065,1.978,-0.128,0.035,1.981
2.293,-1.032,0.228,-0.241,-0.147,0.009,0.026,-0.016,0.001,0.002,0.045,-0.038,0.056,-0.213,0.064,1.978,-0.135,0.030,1.961
2.318,-1.015,0.289,-0.299,-0.164,0.010,0.026,-0.019,0.002,0.003,0.045,0.002,0.061,-0.213,0.064,1.979,-0.143,0.024,1.964
2.342,-1.099,0.587,-0.302,-0.181,0.012,0.026,-0.022,0.002,0.003,0.004,0.009,0.040,-0.214,0.064,1.980,-0.142,0.025,1.962
2.367,-0.947,0.275,-0.013,-0.203,0.015,0.026,-0.027,0.002,0.004,0.032,-0.013,0.028,-0.215,0.064,1.980,-0.149,0.020,1.967
2.392,-0.838,0.381,0.346,-0.235,0.022,0.026,-0.035,0.003,0.005,0.099,-0.010,-0.011,-0.215,0.064,1.981,-0.155,0.015,1.977
2.417,-0.908,0.092,0.163,-0.253,0.026,0.027,-0.040,0.003,0.005,0.182,0.004,-0.064,-0.216,0.064,1.981,-0.157,0.017,1.967
2.442,-1.047,-0.178,-0.577,-0.271,0.030,0.027,-0.045,0.004,0.006,0.248,0.018,-0.088,-0.216,0.063,1.981,-0.171,0.015,1.952
2.468,-1.119,0.068,-0.065,-0.308,0.035,0.025,-0.056,0.005,0.007,0.126,0.093,-0.037,-0.216,0.063,1.982,-0.174,0.017,1.943
2.494,-1.212,0.358,0.269,-0.327,0.038,0.024,-0.063,0.006,0.008,0.028,0.076,-0.016,-0.216,0.063,1.982,-0.184,0.017,1.927
2.519,-1.012,0.276,0.023,-0.347,0.041,0.023,-0.069,0.007,0.008,0.046,0.026,-0.015,-0.216,0.063,1.982,-0.193,0.013,1.931
2.542,-0.862,0.371,0.168,-0.367,0.044,0.022,-0.077,0.008,0.008,-0.015,-0.049,-0.054,-0.216,0.063,1.983,-0.192,0.013,1.947
2.568,-0.074,0.185,1.900,-0.403,0.052,0.026,-0.092,0.009,0.009,-0.138,-0.137,-0.072,-0.215,0.063,1.983,-0.195,0.009,1.930
2.592,0.193,0.259,1.585,-0.419,0.056,0.032,-0.100,0.011,0.010,-0.173,-0.236,-0.061,-0.215,0.063,1.983,-0.185,0.002,1.943
2.617,-0.192,0.451,0.539,-0.433,0.060,0.040,-0.109,0.012,0.011,-0.006,-0.108,-0.032,-0.215,0.063,1.983,-0.184,0.001,1.947
2.642,-0.468,0.533,-1.052,-0.447,0.065,0.047,-0.118,0.013,0.012,0.171,0.195,-0.015,-0.215,0.063,1.983,-0.191,-0.001,1.932
2.667,0.162,0.531,-1.750,-0.459,0.070,0.050,-0.127,0.014,0.013,-0.312,0.445,-0.186,-0.215,0.063,1.983,-0.192,0.008,1.940
2.692,2.134,-0.036,2.059,-0.474,0.080,0.054,-0.145,0.017,0.015,-0.897,0.545,-0.292,-0.216,0.063,1.983,-0.154,0.035,1.962
2.717,1.579,0.533,2.868,-0.475,0.085,0.061,-0.155,0.019,0.016,-1.079,0.654,-0.264,-0.217,0.064,1.982,-0.122,0.049,1.964
2.742,0.395,-0.031,0.405,-0.474,0.090,0.071,-0.164,0.021,0.017,-0.707,0.522,-0.155,-0.218,0.065,1.982,-0.107,0.060,1.957
2.766,0.150,-0.188,-1.498,-0.472,0.094,0.079,-0.174,0.023,0.019,0.431,-0.123,0.051,-0.221,0.068,1.981,-0.106,0.066,1.940
2.791,0.709,-0.563,-1.528,-0.468,0.099,0.083,-0.193,0.026,0.022,0.390,-0.221,0.067,-0.222,0.069,1.980,-0.116,0.066,1.920
2.816,0.868,-0.319,0.488,-0.464,0.100,0.081,-0.202,0.028,0.023,0.043,-0.130,0.117,-0.223,0.070,1.980,-0.115,0.064,1.916
2.841,0.937,0.138,1.510,-0.459,0.100,0.082,-0.211,0.030,0.025,-0.406,0.076,0.243,-0.224,0.071,1.980,-0.100,0.067,1.927
2.866,0.393,0.425,1.890,-0.453,0.101,0.086,-0.220,0.032,0.027,-0.044,-0.064,0.028,-0.227,0.073,1.980,-0.089,0.069,1.938
2.891,0.262,-0.604,-0.426,-0.440,0.102,0.099,-0.238,0.037,0.030,0.294,-0.177,0.006,-0.229,0.074,1.980,-0.090,0.067,1.937
2.916,-0.171,-0.192,-1.234,-0.435,0.102,0.103,-0.247,0.039,0.033,0.369,-0.144,0.144,-0.230,0.075,1.980,-0.100,0.065,1.932
2.941,-0.381,0.083,-1.172,-0.430,0.101,0.105,-0.256,0.041,0.035,0.239,-0.033,0.180,-0.230,0.076,1.980,-0.104,0.064,1.945
2.966,-0.327,0.204,-0.551,-0.427,0.101,0.105,-0.264,0.043,0.037,0.083,0.022,0.042,-0.232,0.077,1.980,-0.108,0.062,1.936
2.991,-0.298,-0.116,-0.620,-0.422,0.101,0.102,-0.281,0.047,0.041,0.224,-0.026,0.016,-0.232,0.078,1.980,-0.116,0.062,1.934
3.016,-0.463,-0.093,-1.124,-0.421,0.100,0.098,-0.290,0.049,0.043,0.336,-0.032,0.031,-0.233,0.078,1.980,-0.122,0.062,1.940
3.041,-0.561,-0.056,-1.448,-0.422,0.100,0.092,-0.298,0.051,0.045,0.346,0.015,0.020,-0.233,0.079,1.981,-0.135,0.061,1.920
3.065,-0.638,-0.397,-1.173,-0.423,0.099,0.085,-0.306,0.053,0.046,0.250,0.010,-0.111,-0.233,0.080,1.981,-0.140,0.062,1.929
3.090,-0.309,-0.553,-0.678,-0.428,0.095,0.066,-0.323,0.057,0.050,0.233,-0.077,-0.133,-0.232,0.081,1.981,-0.153,0.065,1.924
3.115,-0.392,-0.456,-0.603,-0.431,0.091,0.056,-0.332,0.058,0.051,0.266,-0.123,-0.097,-0.232,0.081,1.981,-0.163,0.064,1.917
3.141,-0.403,-0.559,-0.449,-0.435,0.087,0.046,-0.341,0.060,0.052,0.280,-0.098,-0.066,-0.231,0.082,1.981,-0.167,0.063,1.920
3.166,-0.340,-0.683,-0.025,-0.439,0.082,0.037,-0.349,0.062,0.053,0.106,0.044,-0.034,-0.230,0.082,1.981,-0.176,0.066,1.919
3.191,0.036,0.130,1.536,-0.447,0.071,0.023,-0.367,0.065,0.054,0.038,-0.034,-0.012,-0.229,0.083,1.981,-0.178,0.067,1.921
3.216,0.033,0.456,1.488,-0.450,0.067,0.022,-0.376,0.066,0.054,0.176,-0.238,-0.018,-0.228,0.083,1.981,-0.181,0.062,1.917
3.241,0.089,0.600,1.039,-0.453,0.065,0.023,-0.385,0.068,0.055,0.430,-0.418,-0.054,-0.227,0.083,1.981,-0.187,0.051,1.922
3.266,-0.149,-0.063,0.725,-0.455,0.063,0.026,-0.394,0.069,0.055,0.607,-0.227,-0.089,-0.224,0.083,1.980,-0.198,0.043,1.930
3.291,-0.185,1.021,-0.418,-0.461,0.061,0.033,-0.413,0.071,0.056,0.514,-0.175,-0.021,-0.222,0.082,1.980,-0.222,0.036,1.912
3.316,0.318,1.491,-0.619,-0.463,0.063,0.034,-0.422,0.073,0.057,0.276,-0.291,-0.064,-0.220,0.081,1.980,-0.221,0.021,1.928
3.341,0.840,0.873,0.205,-0.464,0.067,0.035,-0.431,0.074,0.058,-0.105,-0.316,-0.272,-0.217,0.080,1.980,-0.218,0.016,1.929
3.366,1.708,-0.235,0.308,-0.463,0.071,0.036,-0.441,0.075,0.058,-0.964,0.013,-0.447,-0.215,0.079,1.978,-0.193,0.019,1.929
3.390,0.898,-0.738,-0.411,-0.451,0.075,0.038,-0.460,0.078,0.060,-0.962,0.426,-0.183,-0.214,0.078,1.977,-0.148,0.038,1.955
3.415,0.447,-0.388,-0.961,-0.444,0.075,0.038,-0.468,0.080,0.061,-0.652,0.512,0.115,-0.214,0.077,1.976,-0.136,0.048,1.945
3.439,-0.049,0.481,-0.798,-0.437,0.075,0.036,-0.476,0.081,0.061,-0.268,0.162,0.285,-0.214,0.077,1.976,-0.130,0.047,1.940
3.465,-0.632,1.452,-0.638,-0.431,0.077,0.032,-0.485,0.083,0.062,0.000,-0.549,0.276,-0.214,0.076,1.975,-0.129,0.038,1.939
3.490,-0.586,0.743,-0.979,-0.425,0.088,0.022,-0.502,0.086,0.063,-0.142,-0.191,0.076,-0.214,0.075,1.974,-0.130,0.010,1.937
3.515,-0.232,0.122,-0.890,-0.425,0.094,0.015,-0.511,0.088,0.064,-0.309,0.105,-0.042,-0.215,0.075,1.974,-0.125,0.010,1.941
3.540,-0.203,0.037,-0.700,-0.424,0.100,0.007,-0.519,0.090,0.064,-0.365,0.176,-0.072,-0.215,0.074,1.974,-0.118,0.014,1.943
3.565,-0.249,-0.121,-0.641,-0.424,0.106,-0.002,-0.528,0.092,0.064,-0.213,0.037,-0.055,-0.217,0.073,1.973,-0.115,0.016,1.928
3.590,-0.603,0.021,-0.312,-0.427,0.115,-0.019,-0.545,0.096,0.063,-0.133,0.000,-0.017,-0.218,0.072,1.973,-0.113,0.015,1.926
3.614,-0.837,0.033,-0.456,-0.430,0.119,-0.028,-0.553,0.099,0.063,-0.048,0.061,0.034,-0.219,0.072,1.972,-0.112,0.017,1.924
3.638,-1.042,0.168,-0.355,-0.434,0.123,-0.036,-0.561,0.101,0.062,0.000,0.123,0.090,-0.220,0.071,1.972,-0.121,0.014,1.915
3.663,-1.305,0.339,-0.217,-0.441,0.127,-0.044,-0.571,0.104,0.061,0.112,-0.001,0.079,-0.222,0.071,1.972,-0.122,0.016,1.925
3.687,-0.899,0.819,0.990,-0.458,0.137,-0.057,-0.588,0.109,0.059,0.095,-0.079,-0.026,-0.222,0.071,1.972,-0.133,0.007,1.912
3.713,-0.647,0.616,1.788,-0.470,0.144,-0.059,-0.598,0.112,0.058,0.040,-0.093,-0.150,-0.223,0.070,1.971,-0.139,-0.001,1.911
3.738,-0.553,0.248,1.901,-0.480,0.151,-0.057,-0.607,0.115,0.057,0.057,0.034,-0.180,-0.224,0.070,1.971,-0.140,0.001,1.909
3.763,-0.694,0.009,1.004,-0.491,0.157,-0.053,-0.617,0.118,0.056,0.367,0.536,0.032,-0.225,0.070,1.970,-0.149,0.005,1.886
3.787,-0.691,0.153,0.444,-0.513,0.168,-0.042,-0.637,0.124,0.054,0.453,0.481,0.064,-0.225,0.070,1.970,-0.156,0.016,1.885
3.812,-0.068,0.303,0.964,-0.525,0.173,-0.035,-0.648,0.128,0.053,0.415,0.144,-0.044,-0.225,0.070,1.970,-0.177,0.026,1.864
3.837,0.367,0.050,1.248,-0.534,0.178,-0.027,-0.658,0.131,0.053,0.326,-0.055,-0.161,-0.224,0.071,1.969,-0.181,0.026,1.865
3.861,0.496,0.091,0.593,-0.542,0.183,-0.018,-0.669,0.135,0.052,0.261,0.057,-0.144,-0.224,0.072,1.969,-0.185,0.028,1.861
3.886,0.743,0.230,0.614,-0.548,0.188,-0.009,-0.680,0.138,0.052,-0.056,0.106,-0.078,-0.222,0.073,1.968,-0.182,0.033,1.853
3.910,1.588,-0.502,1.788,-0.552,0.195,0.014,-0.702,0.146,0.052,-0.274,-0.140,-0.158,-0.222,0.073,1.967,-0.164,0.040,1.864
3.935,1.403,-0.273,0.954,-0.549,0.197,0.028,-0.713,0.150,0.052,-0.188,-0.121,-0.042,-0.222,0.074,1.967,-0.159,0.038,1.859
3.960,0.917,0.128,-0.148,-0.544,0.199,0.042,-0.724,0.154,0.053,0.097,-0.022,0.161,-0.221,0.074,1.966,-0.153,0.039,1.861
3.985,1.105,0.609,-0.102,-0.537,0.201,0.054,-0.735,0.158,0.054,0.103,-0.407,0.053,-0.220,0.075,1.966,-0.157,0.035,1.868
4.010,1.456,0.214,0.193,-0.519,0.208,0.076,-0.756,0.166,0.057,-0.131,-0.408,-0.057,-0.220,0.075,1.965,-0.144,0.019,1.877
4.034,1.120,0.055,-0.534,-0.507,0.211,0.085,-0.766,0.170,0.058,-0.265,-0.214,-0.067,-0.219,0.075,1.965,-0.128,0.018,1.891
4.059,0.765,-0.120,-1.203,-0.494,0.214,0.091,-0.776,0.175,0.060,-0.268,0.049,0.007,-0.219,0.074,1.964,-0.123,0.019,1.890
4.084,0.439,-0.224,-1.500,-0.481,0.217,0.094,-0.786,0.179,0.062,-0.165,0.302,0.137,-0.219,0.074,1.964,-0.114,0.027,1.887
4.109,-0.105,-0.433,-2.151,-0.459,0.219,0.090,-0.805,0.188,0.066,-0.022,0.290,0.177,-0.219,0.074,1.964,-0.112,0.042,1.888
4.134,-0.472,-0.399,-2.596,-0.449,0.218,0.081,-0.814,0.192,0.067,0.139,0.263,0.215,-0.219,0.075,1.964,-0.115,0.047,1.887
4.159,-0.660,-0.536,-2.753,-0.443,0.217,0.069,-0.823,0.196,0.069,0.216,0.198,0.183,-0.219,0.075,1.964,-0.129,0.053,1.875
4.184,-0.628,-0.774,-2.050,-0.437,0.215,0.052,-0.831,0.201,0.070,0.073,-0.016,0.082,-0.219,0.076,1.964,-0.131,0.055,1.881
4.209,-0.604,-0.519,-0.519,-0.432,0.207,0.017,-0.848,0.209,0.071,0.125,-0.066,0.093,-0.219,0.077,1.964,-0.141,0.057,1.869
4.233,-0.641,-0.395,-0.451,-0.431,0.201,-0.002,-0.858,0.213,0.072,0.186,-0.001,0.110,-0.218,0.077,1.965,-0.151,0.057,1.859
4.258,-0.572,-0.705,-0.387,-0.432,0.196,-0.016,-0.866,0.217,0.071,0.173,0.103,0.076,-0.218,0.078,1.965,-0.154,0.060,1.861
4.283,-0.097,-0.892,0.546,-0.433,0.189,-0.031,-0.875,0.221,0.071,0.005,0.109,0.045,-0.217,0.079,1.966,-0.157,0.067,1.856
4.308,-0.021,-0.282,1.160,-0.436,0.175,-0.051,-0.892,0.228,0.069,0.028,0.093,0.101,-0.216,0.080,1.966,-0.156,0.070,1.864
4.332,-0.085,-0.036,1.182,-0.437,0.168,-0.056,-0.901,0.232,0.068,0.071,0.066,0.119,-0.216,0.080,1.967,-0.158,0.074,1.861
4.356,-0.186,0.023,0.897,-0.439,0.162,-0.058,-0.909,0.235,0.067,0.153,0.001,0.140,-0.215,0.081,1.968,-0.163,0.073,1.870
4.381,-0.203,0.202,1.063,-0.440,0.156,-0.058,-0.918,0.238,0.066,0.219,-0.059,0.140,-0.215,0.082,1.968,-0.166,0.072,1.867
4.406,-0.142,0.840,1.929,-0.442,0.152,-0.056,-0.927,0.241,0.065,0.236,-0.244,0.147,-0.213,0.083,1.970,-0.170,0.064,1.852
4.431,-0.094,0.446,1.174,-0.446,0.150,-0.040,-0.945,0.247,0.063,0.464,-0.231,0.109,-0.212,0.083,1.970,-0.183,0.051,1.840
4.456,-0.291,0.923,-0.349,-0.448,0.151,-0.031,-0.954,0.250,0.062,0.753,-0.214,0.109,-0.211,0.083,1.971,-0.196,0.047,1.824
4.481,-0.058,2.185,-1.229,-0.450,0.155,-0.024,-0.963,0.253,0.062,0.781,-0.343,0.022,-0.209,0.083,1.972,-0.209,0.024,1.812
4.506,1.209,2.186,0.283,-0.451,0.163,-0.018,-0.972,0.257,0.061,-0.476,-0.698,-0.762,-0.205,0.082,1.973,-0.214,0.013,1.821
4.530,2.784,-0.250,2.431,-0.442,0.182,-0.000,-0.990,0.263,0.061,-1.001,-0.347,-0.924,-0.203,0.081,1.973,-0.169,0.002,1.854
4.555,2.036,-0.347,1.884,-0.430,0.190,0.015,-0.999,0.267,0.061,-0.976,0.128,-0.590,-0.202,0.080,1.973,-0.136,0.012,1.867
4.579,1.128,0.247,0.655,-0.417,0.196,0.029,-1.007,0.271,0.061,-0.574,0.400,-0.167,-0.202,0.079,1.972,-0.124,0.020,1.870
4.604,0.183,0.441,-0.389,-0.404,0.203,0.043,-1.015,0.275,0.062,-0.044,-0.012,0.110,-0.202,0.078,1.971,-0.118,0.023,1.847
4.629,-0.796,0.287,-1.914,-0.383,0.216,0.062,-1.030,0.283,0.064,0.045,-0.051,0.170,-0.202,0.077,1.970,-0.126,0.016,1.840
4.654,-0.865,0.144,-2.629,-0.376,0.224,0.064,-1.039,0.288,0.066,0.189,0.101,0.177,-0.202,0.077,1.969,-0.130,0.018,1.844
4.679,-0.730,-0.046,-2.702,-0.371,0.229,0.060,-1.046,0.292,0.067,0.276,0.224,0.112,-0.201,0.076,1.969,-0.144,0.020,1.832
4.703,-0.541,0.018,-2.126,-0.368,0.235,0.052,-1.053,0.297,0.068,0.054,-0.109,-0.142,-0.200,0.076,1.968,-0.148,0.023,1.833
4.729,-0.385,0.086,-1.608,-0.366,0.245,0.028,-1.068,0.307,0.069,0.046,-0.028,-0.123,-0.200,0.076,1.968,-0.153,0.020,1.817
4.754,-0.471,0.167,-1.474,-0.366,0.250,0.011,-1.076,0.312,0.070,0.005,0.121,-0.079,-0.200,0.075,1.968,-0.157,0.020,1.818
4.783,-0.499,0.091,-1.267,-0.367,0.254,-0.003,-1.083,0.317,0.070,-0.002,0.166,-0.066,-0.199,0.075,1.967,-0.156,0.024,1.804
4.812,-0.658,-0.030,-0.939,-0.371,0.260,-0.036,-1.097,0.327,0.069,0.054,0.075,-0.010,-0.198,0.075,1.966,-0.160,0.030,1.802
4.838,-0.884,0.099,-0.700,-0.376,0.264,-0.054,-1.105,0.332,0.068,0.109,0.020,0.078,-0.198,0.075,1.966,-0.171,0.027,1.802
4.864,-1.142,0.004,-0.658,-0.382,0.267,-0.073,-1.114,0.338,0.067,0.165,-0.071,0.123,-0.197,0.075,1.965,-0.173,0.027,1.793
4.893,-0.966,0.301,0.768,-0.397,0.272,-0.102,-1.128,0.348,0.064,0.066,-0.117,0.132,-0.196,0.075,1.965,-0.186,0.020,1.792
4.923,-0.837,0.362,1.230,-0.406,0.275,-0.112,-1.136,0.354,0.061,-0.016,-0.007,0.138,-0.195,0.075,1.964,-0.192,0.013,1.797
4.951,-0.657,0.369,1.151,-0.427,0.282,-0.124,-1.153,0.365,0.057,0.037,0.086,0.105,-0.194,0.075,1.964,-0.196,0.011,1.797
4.981,-0.424,0.240,1.191,-0.439,0.286,-0.126,-1.162,0.371,0.054,0.067,0.101,0.045,-0.193,0.075,1.964,-0.197,0.013,1.805
5.010,-0.045,-0.231,1.593,-0.458,0.293,-0.120,-1.179,0.382,0.049,0.034,0.172,0.005,-0.192,0.075,1.965,-0.199,0.017,1.808
5.040,-0.041,-0.837,0.811,-0.467,0.296,-0.114,-1.189,0.388,0.047,0.068,0.468,0.089,-0.191,0.075,1.965,-0.202,0.031,1.807
5.067,0.246,-0.066,-0.131,-0.474,0.297,-0.107,-1.198,0.394,0.045,0.341,0.789,0.281,-0.190,0.077,1.965,-0.205,0.047,1.800
5.091,2.146,0.904,-0.079,-0.484,0.298,-0.099,-1.217,0.405,0.041,0.351,0.238,0.079,-0.188,0.079,1.966,-0.217,0.068,1.783
5.115,3.070,0.568,2.272,-0.482,0.301,-0.094,-1.227,0.412,0.039,-0.012,-0.775,-0.281,-0.188,0.080,1.966,-0.196,0.055,1.801
5.139,3.830,0.931,2.894,-0.474,0.305,-0.084,-1.236,0.418,0.037,-0.296,-1.228,-0.533,-0.187,0.080,1.966,-0.189,0.033,1.806
5.163,2.913,0.410,1.990,-0.459,0.310,-0.071,-1.246,0.424,0.035,-0.182,-0.166,-0.162,-0.185,0.080,1.965,-0.162,0.019,1.841
5.187,1.127,0.653,-1.006,-0.423,0.321,-0.045,-1.263,0.436,0.033,-0.137,0.464,0.103,-0.185,0.079,1.965,-0.158,0.016,1.847
5.212,0.973,-0.166,-0.970,-0.403,0.327,-0.035,-1.272,0.443,0.032,-0.375,0.654,0.043,-0.184,0.079,1.965,-0.137,0.036,1.864
5.237,0.507,-0.463,-1.376,-0.384,0.332,-0.029,-1.279,0.450,0.032,-0.591,0.687,-0.088,-0.184,0.080,1.964,-0.121,0.055,1.881
5.261,-0.072,-0.664,-2.214,-0.366,0.335,-0.028,-1.287,0.456,0.031,-0.519,0.682,-0.062,-0.185,0.080,1.964,-0.111,0.068,1.882
5.285,-0.450,-0.598,-2.801,-0.349,0.337,-0.032,-1.295,0.464,0.030,-0.059,0.356,0.055,-0.186,0.083,1.963,-0.113,0.084,1.864
5.309,-0.577,-0.451,-2.298,-0.328,0.336,-0.053,-1.308,0.476,0.029,-0.004,0.166,0.027,-0.186,0.085,1.963,-0.120,0.096,1.848
5.334,-0.393,-0.444,-1.485,-0.320,0.334,-0.069,-1.314,0.483,0.028,-0.177,-0.160,-0.070,-0.187,0.086,1.963,-0.117,0.093,1.842
5.363,-0.263,-0.529,-1.072,-0.313,0.331,-0.087,-1.321,0.490,0.026,-0.090,-0.224,-0.029,-0.188,0.089,1.962,-0.118,0.092,1.842
5.390,-0.339,-0.572,-0.382,-0.304,0.324,-0.120,-1.333,0.503,0.022,-0.066,-0.213,0.015,-0.189,0.089,1.962,-0.119,0.086,1.843
5.415,-0.400,-0.762,-0.199,-0.300,0.319,-0.136,-1.339,0.510,0.019,-0.056,-0.144,0.068,-0.190,0.090,1.961,-0.118,0.083,1.852
5.441,-0.492,-0.979,-0.158,-0.299,0.313,-0.150,-1.345,0.516,0.016,-0.032,-0.040,0.133,-0.191,0.091,1.961,-0.124,0.087,1.845
5.466,-0.617,-0.900,-0.018,-0.298,0.305,-0.163,-1.351,0.522,0.013,0.120,-0.032,0.292,-0.192,0.093,1.961,-0.125,0.087,1.825
5.491,-1.914,2.463,1.382,-0.303,0.294,-0.183,-1.363,0.534,0.006,0.275,-0.109,0.109,-0.193,0.093,1.961,-0.140,0.077,1.806
5.516,-0.690,-1.204,1.688,-0.309,0.292,-0.187,-1.369,0.540,0.003,0.464,0.002,-0.486,-0.193,0.094,1.961,-0.155,0.084,1.784
5.541,-0.172,-2.360,1.649,-0.316,0.287,-0.188,-1.375,0.545,-0.001,0.591,0.095,-0.949,-0.193,0.094,1.961,-0.164,0.090,1.779
5.567,-0.739,0.059,1.888,-0.323,0.280,-0.185,-1.382,0.551,-0.005,0.386,-0.061,-0.236,-0.193,0.096,1.959,-0.179,0.092,1.772
5.592,-0.334,0.409,3.281,-0.339,0.272,-0.165,-1.395,0.562,-0.012,0.233,-0.142,-0.242,-0.192,0.096,1.958,-0.192,0.087,1.763
5.617,-0.057,-0.437,2.724,-0.346,0.269,-0.149,-1.402,0.568,-0.015,0.336,-0.114,-0.356,-0.191,0.097,1.956,-0.198,0.087,1.759
5.641,-0.283,-0.393,0.547,-0.354,0.266,-0.129,-1.409,0.573,-0.018,0.652,-0.046,-0.187,-0.189,0.097,1.955,-0.213,0.089,1.738
5.666,-0.601,0.377,-1.665,-0.361,0.263,-0.113,-1.416,0.578,-0.020,0.882,-0.209,0.266,-0.186,0.098,1.952,-0.232,0.088,1.734
5.690,1.251,1.883,-0.129,-0.375,0.265,-0.093,-1.431,0.589,-0.024,0.327,-0.496,0.101,-0.184,0.098,1.951,-0.256,0.059,1.715
5.715,2.117,0.592,0.707,-0.377,0.271,-0.085,-1.438,0.594,-0.026,-0.208,-0.569,-0.228,-0.181,0.097,1.950,-0.235,0.048,1.745
5.741,2.206,-0.296,0.342,-0.375,0.276,-0.077,-1.446,0.600,-0.028,-0.364,-0.348,-0.327,-0.179,0.097,1.948,-0.227,0.042,1.762
5.766,1.349,-0.131,-0.545,-0.369,0.280,-0.069,-1.453,0.605,-0.029,-0.043,-0.095,0.184,-0.175,0.096,1.946,-0.211,0.044,1.782
5.790,1.292,0.160,-0.795,-0.352,0.288,-0.061,-1.467,0.616,-0.032,-0.114,-0.281,0.183,-0.174,0.095,1.945,-0.196,0.036,1.800
5.815,1.179,0.425,-0.027,-0.341,0.293,-0.060,-1.474,0.622,-0.033,-0.294,-0.307,0.097,-0.172,0.094,1.943,-0.191,0.030,1.803
5.840,0.571,0.363,-0.439,-0.329,0.297,-0.059,-1.481,0.628,-0.034,-0.356,-0.200,0.144,-0.171,0.093,1.942,-0.178,0.024,1.815
5.865,-0.013,0.229,-1.603,-0.318,0.302,-0.060,-1.488,0.634,-0.035,0.073,0.231,0.379,-0.169,0.091,1.941,-0.175,0.023,1.817
5.889,-0.673,0.354,-2.765,-0.301,0.312,-0.075,-1.500,0.646,-0.038,0.232,0.272,0.385,-0.168,0.090,1.941,-0.186,0.028,1.813
5.914,-0.719,0.406,-2.343,-0.295,0.317,-0.090,-1.506,0.653,-0.040,0.197,0.170,0.348,-0.166,0.089,1.941,-0.197,0.025,1.810
5.939,-0.834,0.491,-2.082,-0.292,0.322,-0.106,-1.512,0.659,-0.042,0.002,-0.001,0.222,-0.165,0.089,1.941,-0.197,0.024,1.812
5.964,-0.865,0.529,-1.867,-0.291,0.328,-0.126,-1.518,0.666,-0.044,-0.105,-0.015,0.110,-0.163,0.088,1.941,-0.205,0.016,1.819
5.988,-0.707,0.109,-0.910,-0.294,0.341,-0.168,-1.529,0.679,-0.050,-0.209,-0.027,0.031,-0.162,0.087,1.942,-0.203,0.016,1.820
6.013,-0.683,0.189,-0.128,-0.297,0.347,-0.189,-1.535,0.686,-0.054,-0.298,-0.004,0.021,-0.161,0.087,1.942,-0.199,0.012,1.821
6.038,-0.722,0.101,0.680,-0.301,0.352,-0.206,-1.541,0.693,-0.057,-0.304,0.024,0.053,-0.161,0.086,1.942,-0.199,0.010,1.817
6.063,-0.944,-0.051,1.005,-0.307,0.357,-0.220,-1.547,0.700,-0.062,-0.026,0.031,0.100,-0.160,0.085,1.943,-0.195,0.011,1.808
6.088,-0.947,-0.008,1.255,-0.322,0.365,-0.238,-1.560,0.714,-0.071,0.053,-0.028,0.078,-0.160,0.085,1.944,-0.202,0.009,1.790
6.113,-0.829,-0.072,1.562,-0.332,0.369,-0.242,-1.566,0.722,-0.076,0.088,-0.087,0.055,-0.159,0.084,1.944,-0.211,0.005,1.786
6.138,-0.990,0.185,1.386,-0.342,0.372,-0.242,-1.573,0.729,-0.080,0.160,-0.067,0.065,-0.159,0.084,1.945,-0.213,0.004,1.789
6.163,-0.884,0.324,1.512,-0.353,0.376,-0.240,-1.580,0.737,-0.085,0.132,0.026,0.038,-0.158,0.083,1.946,-0.223,0.000,1.791
6.188,0.035,-0.080,2.447,-0.375,0.383,-0.224,-1.595,0.752,-0.095,0.057,0.046,-0.053,-0.157,0.082,1.946,-0.225,0.001,1.802
6.212,0.617,-0.648,2.601,-0.384,0.386,-0.211,-1.602,0.759,-0.099,0.059,0.061,-0.103,-0.156,0.082,1.947,-0.227,0.004,1.798
6.237,0.741,-1.303,2.008,-0.391,0.386,-0.194,-1.610,0.767,-0.103,0.167,0.134,-0.023,-0.156,0.082,1.947,-0.227,0.015,1.799
6.262,0.332,-0.702,0.489,-0.396,0.385,-0.176,-1.618,0.775,-0.107,0.373,0.368,0.217,-0.155,0.082,1.948,-0.234,0.022,1.782
6.286,-0.023,0.352,-0.765,-0.400,0.383,-0.160,-1.626,0.783,-0.110,0.457,0.511,0.546,-0.153,0.082,1.949,-0.244,0.028,1.778
6.310,1.478,0.313,-0.462,-0.406,0.382,-0.139,-1.642,0.798,-0.116,0.151,0.173,0.209,-0.151,0.083,1.950,-0.242,0.039,1.784
6.334,2.527,-0.007,0.451,-0.403,0.383,-0.130,-1.650,0.806,-0.119,-0.199,-0.215,-0.172,-0.150,0.083,1.951,-0.237,0.036,1.795
6.358,2.890,-0.213,0.932,-0.395,0.383,-0.121,-1.658,0.813,-0.121,-0.402,-0.456,-0.343,-0.148,0.084,1.952,-0.207,0.035,1.834
6.382,2.757,0.076,0.630,-0.382,0.383,-0.111,-1.666,0.821,-0.124,-0.495,-0.550,-0.353,-0.147,0.084,1.953,-0.197,0.026,1.834
6.406,2.128,-0.132,0.039,-0.367,0.383,-0.102,-1.673,0.829,-0.126,-0.670,0.294,-0.020,-0.147,0.083,1.954,-0.169,0.026,1.841
6.430,0.786,-0.398,-0.668,-0.329,0.381,-0.088,-1.687,0.844,-0.129,-0.850,0.872,0.253,-0.147,0.084,1.954,-0.132,0.053,1.859
6.454,0.022,-0.082,-1.161,-0.311,0.379,-0.085,-1.694,0.851,-0.131,-0.894,1.081,0.517,-0.148,0.084,1.955,-0.116,0.073,1.861
6.478,-0.515,-0.103,-1.902,-0.296,0.377,-0.085,-1.700,0.859,-0.133,-0.601,0.916,0.662,-0.149,0.086,1.956,-0.110,0.089,1.854
6.502,-0.850,0.006,-2.461,-0.283,0.375,-0.089,-1.705,0.867,-0.135,-0.155,0.517,0.685,-0.150,0.087,1.958,-0.108,0.098,1.855
6.526,-0.828,0.221,-2.496,-0.273,0.373,-0.098,-1.711,0.874,-0.136,0.231,-0.268,0.395,-0.153,0.091,1.961,-0.122,0.093,1.853
6.550,-0.515,0.370,-1.510,-0.260,0.373,-0.125,-1.721,0.889,-0.141,-0.029,-0.349,0.116,-0.154,0.093,1.963,-0.130,0.075,1.853
6.573,-0.320,0.112,-1.252,-0.256,0.374,-0.142,-1.727,0.896,-0.144,-0.079,-0.246,-0.016,-0.155,0.094,1.966,-0.128,0.070,1.860
6.597,-0.264,0.038,-0.984,-0.253,0.375,-0.159,-1.732,0.904,-0.147,-0.082,-0.155,-0.073,-0.156,0.095,1.967,-0.128,0.066,1.871
6.621,-0.267,-0.075,-0.559,-0.251,0.375,-0.175,-1.737,0.911,-0.150,-0.094,-0.123,-0.100,-0.158,0.096,1.969,-0.126,0.064,1.874
6.645,-0.085,-0.637,-0.529,-0.250,0.375,-0.193,-1.742,0.920,-0.154,0.061,-0.002,-0.045,-0.160,0.098,1.973,-0.127,0.067,1.873
6.668,-0.341,-1.081,-0.793,-0.248,0.369,-0.224,-1.752,0.934,-0.162,0.186,0.048,0.143,-0.161,0.099,1.974,-0.138,0.074,1.869
6.696,-1.252,-0.508,-0.202,-0.248,0.364,-0.239,-1.757,0.941,-0.166,0.291,-0.042,0.304,-0.162,0.099,1.976,-0.143,0.073,1.850
6.724,-1.590,-0.546,0.147,-0.252,0.358,-0.253,-1.762,0.948,-0.171,0.337,-0.282,0.291,-0.163,0.101,1.980,-0.165,0.068,1.829
6.755,-1.754,0.925,1.385,-0.267,0.347,-0.275,-1.772,0.962,-0.182,0.164,-0.431,0.299,-0.163,0.101,1.982,-0.185,0.044,1.810
6.784,-1.158,1.112,2.499,-0.279,0.345,-0.279,-1.778,0.970,-0.188,-0.249,-0.578,-0.081,-0.163,0.101,1.986,-0.182,0.032,1.813
6.813,-0.390,-0.203,3.200,-0.302,0.346,-0.271,-1.789,0.983,-0.199,-0.301,-0.428,-0.276,-0.164,0.100,1.988,-0.173,0.010,1.815
6.841,-0.576,-0.379,2.684,-0.317,0.345,-0.254,-1.797,0.992,-0.205,-0.233,-0.238,-0.266,-0.164,0.099,1.989,-0.173,0.007,1.827
6.872,-0.418,1.676,1.060,-0.337,0.347,-0.225,-1.809,1.004,-0.214,-0.016,-0.067,-0.064,-0.166,0.097,1.992,-0.171,-0.006,1.810
6.900,0.727,1.519,1.891,-0.348,0.352,-0.207,-1.815,1.011,-0.218,-0.169,-0.203,-0.308,-0.167,0.096,1.994,-0.166,-0.008,1.817
6.930,1.830,-0.548,1.184,-0.358,0.364,-0.165,-1.830,1.025,-0.225,-0.382,-0.086,-0.865,-0.168,0.094,1.995,-0.140,-0.008,1.830
6.958,1.062,-0.134,0.443,-0.358,0.368,-0.141,-1.838,1.034,-0.229,-0.171,0.133,-0.615,-0.169,0.093,1.995,-0.128,-0.000,1.828
6.988,0.412,0.478,-1.554,-0.354,0.376,-0.109,-1.851,1.047,-0.233,0.384,0.130,-0.308,-0.172,0.092,1.995,-0.132,0.005,1.818
7.015,0.494,-0.029,-1.280,-0.351,0.380,-0.098,-1.858,1.055,-0.235,0.369,-0.044,-0.443,-0.172,0.091,1.994,-0.141,0.006,1.800
7.042,0.562,-0.132,-0.553,-0.347,0.383,-0.091,-1.865,1.062,-0.237,-0.173,-0.148,-0.385,-0.174,0.089,1.992,-0.138,0.006,1.799
7.072,0.012,-0.467,-1.897,-0.339,0.389,-0.082,-1.879,1.078,-0.241,-0.134,0.023,-0.216,-0.174,0.088,1.991,-0.133,0.009,1.798
7.100,-0.454,-0.653,-2.289,-0.335,0.389,-0.084,-1.885,1.086,-0.242,0.072,0.211,-0.068,-0.175,0.087,1.989,-0.135,0.013,1.806
7.127,-0.664,-0.151,-2.442,-0.334,0.389,-0.090,-1.892,1.094,-0.244,0.194,0.114,0.101,-0.176,0.086,1.987,-0.147,0.017,1.803
7.154,-1.054,0.156,-2.395,-0.335,0.388,-0.114,-1.906,1.109,-0.248,0.184,0.039,0.158,-0.176,0.086,1.986,-0.167,0.015,1.780
7.179,-1.125,0.026,-2.194,-0.339,0.389,-0.132,-1.912,1.117,-0.251,0.075,0.053,0.059,-0.177,0.086,1.985,-0.169,0.016,1.787
7.207,-0.926,0.074,-1.655,-0.345,0.389,-0.151,-1.919,1.125,-0.253,-0.112,-0.049,-0.004,-0.177,0.085,1.983,-0.178,0.014,1.789
7.232,-0.812,0.089,-0.721,-0.360,0.390,-0.192,-1.933,1.140,-0.260,-0.150,-0.055,-0.048,-0.177,0.085,1.982,-0.180,0.009,1.791
7.257,-0.638,-0.255,-0.032,-0.370,0.391,-0.213,-1.942,1.149,-0.265,-0.237,-0.016,-0.086,-0.178,0.084,1.981,-0.175,0.009,1.785
7.282,-0.190,-0.720,1.415,-0.378,0.390,-0.227,-1.948,1.156,-0.269,-0.408,-0.038,-0.054,-0.178,0.084,1.980,-0.170,0.013,1.794
7.306,-0.145,-0.523,2.309,-0.385,0.389,-0.237,-1.956,1.164,-0.273,-0.184,-0.214,0.481,-0.180,0.083,1.978,-0.161,0.009,1.799
7.330,-1.484,0.984,1.777,-0.403,0.387,-0.242,-1.971,1.179,-0.283,0.238,-0.081,0.776,-0.181,0.082,1.978,-0.167,-0.004,1.798
7.359,-1.524,0.873,0.913,-0.414,0.388,-0.240,-1.979,1.187,-0.288,0.595,-0.028,0.761,-0.182,0.081,1.978,-0.189,-0.016,1.796
7.383,-0.784,0.409,0.701,-0.428,0.391,-0.235,-1.989,1.196,-0.293,0.568,-0.274,0.235,-0.182,0.080,1.979,-0.202,-0.021,1.798
7.412,0.487,-0.382,0.773,-0.450,0.396,-0.225,-2.005,1.210,-0.302,0.356,-0.206,0.148,-0.182,0.079,1.980,-0.220,-0.031,1.803
7.440,0.676,0.081,0.300,-0.459,0.397,-0.218,-2.015,1.218,-0.306,0.194,0.028,0.172,-0.181,0.078,1.981,-0.218,-0.030,1.821
7.466,1.307,0.517,0.705,-0.464,0.399,-0.212,-2.024,1.226,-0.311,0.023,0.106,0.106,-0.180,0.077,1.983,-0.220,-0.025,1.829
7.492,2.722,-0.065,1.976,-0.464,0.405,-0.192,-2.042,1.242,-0.319,-0.077,-0.485,-0.202,-0.179,0.076,1.984,-0.203,-0.032,1.842
7.518,2.578,-0.159,1.580,-0.455,0.407,-0.178,-2.052,1.251,-0.322,-0.110,-0.866,-0.468,-0.179,0.075,1.985,-0.183,-0.041,1.866
7.542,2.042,0.269,0.682,-0.443,0.410,-0.164,-2.061,1.259,-0.326,0.142,-0.343,-0.061,-0.178,0.072,1.986,-0.185,-0.054,1.876
7.571,1.067,0.133,-0.940,-0.415,0.416,-0.139,-2.078,1.275,-0.332,0.100,-0.013,0.006,-0.177,0.070,1.986,-0.179,-0.060,1.884
7.598,1.045,-0.335,-1.507,-0.399,0.418,-0.131,-2.086,1.284,-0.335,-0.121,0.282,-0.068,-0.177,0.068,1.986,-0.167,-0.048,1.907
7.628,0.496,-0.644,-1.678,-0.367,0.419,-0.128,-2.101,1.300,-0.340,-0.633,0.541,-0.018,-0.176,0.065,1.987,-0.161,-0.039,1.894
7.656,0.186,-0.337,-1.596,-0.352,0.417,-0.131,-2.108,1.309,-0.342,-0.694,0.531,0.099,-0.176,0.064,1.987,-0.132,-0.011,1.914
7.683,-0.272,-0.084,-1.589,-0.336,0.416,-0.139,-2.117,1.319,-0.345,-0.445,0.371,0.119,-0.178,0.064,1.988,-0.123,-0.003,1.901
7.712,-0.374,-0.538,-1.480,-0.317,0.411,-0.157,-2.128,1.334,-0.351,-0.246,0.304,0.053,-0.180,0.064,1.988,-0.115,0.013,1.912
7.741,-0.656,-0.242,-1.145,-0.310,0.408,-0.170,-2.135,1.342,-0.354,-0.057,0.197,0.038,-0.181,0.064,1.989,-0.116,0.016,1.917
7.770,-0.862,-0.011,-0.588,-0.301,0.402,-0.197,-2.147,1.358,-0.361,0.191,-0.126,0.035,-0.183,0.064,1.989,-0.129,0.011,1.888
7.797,-0.772,-0.402,-0.166,-0.300,0.399,-0.211,-2.153,1.367,-0.366,0.127,0.032,-0.105,-0.184,0.065,1.990,-0.140,0.012,1.880
7.824,-0.634,-0.696,0.278,-0.300,0.396,-0.222,-2.159,1.374,-0.370,-0.035,0.170,-0.101,-0.186,0.065,1.990,-0.140,0.015,1.854
7.853,-0.807,-0.936,0.246,-0.304,0.386,-0.240,-2.171,1.390,-0.379,-0.012,0.226,-0.033,-0.187,0.065,1.991,-0.146,0.027,1.861
7.881,-1.102,-1.123,-0.142,-0.309,0.378,-0.247,-2.177,1.397,-0.384,0.046,0.414,0.068,-0.187,0.066,1.991,-0.158,0.040,1.844
7.909,-0.863,0.248,0.124,-0.322,0.360,-0.260,-2.190,1.412,-0.394,-0.110,0.199,0.330,-0.189,0.068,1.992,-0.164,0.049,1.850
7.936,-0.453,1.249,0.578,-0.330,0.354,-0.264,-2.196,1.419,-0.399,-0.294,-0.348,0.197,-0.190,0.069,1.992,-0.158,0.042,1.860
7.964,-0.384,0.538,0.885,-0.339,0.350,-0.267,-2.203,1.426,-0.405,-0.329,-0.159,-0.517,-0.192,0.070,1.993,-0.153,0.030,1.857
7.995,0.080,-0.614,1.267,-0.353,0.340,-0.265,-2.217,1.440,-0.415,-0.210,-0.065,-0.459,-0.193,0.071,1.993,-0.142,0.032,1.847
8.022,-0.034,1.722,1.713,-0.358,0.336,-0.260,-2.224,1.447,-0.420,0.078,-0.089,0.099,-0.196,0.071,1.993,-0.141,0.033,1.825
8.049,0.908,2.500,1.599,-0.368,0.343,-0.241,-2.238,1.460,-0.431,0.143,-0.220,-0.131,-0.197,0.072,1.993,-0.142,0.011,1.820
8.076,1.583,0.670,0.551,-0.369,0.352,-0.229,-2.246,1.467,-0.435,0.068,0.024,-0.648,-0.198,0.072,1.992,-0.130,0.013,1.824
8.103,1.361,-0.910,-0.606,-0.367,0.360,-0.217,-2.254,1.475,-0.440,-0.054,0.971,-0.744,-0.201,0.073,1.990,-0.129,0.025,1.805
8.132,1.313,-0.097,-0.707,-0.357,0.366,-0.205,-2.268,1.489,-0.448,-0.089,1.084,-0.402,-0.202,0.075,1.988,-0.119,0.084,1.802
8.159,0.920,-0.222,-0.588,-0.350,0.367,-0.201,-2.275,1.496,-0.452,-0.020,0.761,-0.184,-0.203,0.076,1.987,-0.110,0.103,1.800
8.187,1.044,0.178,-0.532,-0.341,0.369,-0.199,-2.282,1.504,-0.456,0.108,-0.296,-0.001,-0.205,0.080,1.983,-0.111,0.105,1.784
8.215,-0.027,0.660,-0.591,-0.321,0.372,-0.198,-2.295,1.519,-0.464,0.088,-0.401,0.125,-0.206,0.082,1.982,-0.109,0.091,1.765
8.242,-0.151,0.656,-0.899,-0.314,0.375,-0.200,-2.301,1.526,-0.468,0.048,-0.296,0.248,-0.206,0.083,1.980,-0.111,0.079,1.750
8.270,-0.188,0.126,-1.273,-0.301,0.384,-0.208,-2.313,1.541,-0.476,-0.018,-0.147,0.142,-0.208,0.086,1.978,-0.112,0.070,1.745
8.298,-0.497,0.439,-1.341,-0.296,0.388,-0.215,-2.319,1.549,-0.481,0.017,-0.125,0.109,-0.209,0.087,1.977,-0.111,0.068,1.738
8.325,-0.505,0.431,-1.365,-0.292,0.393,-0.226,-2.326,1.557,-0.485,0.051,0.099,0.204,-0.210,0.089,1.975,-0.117,0.062,1.732
8.354,-0.894,0.142,-1.390,-0.290,0.402,-0.248,-2.337,1.572,-0.494,0.083,0.166,0.137,-0.211,0.090,1.974,-0.128,0.064,1.726
8.382,-0.944,0.458,-1.162,-0.292,0.407,-0.262,-2.343,1.581,-0.499,0.136,0.108,0.084,-0.211,0.091,1.973,-0.129,0.066,1.722
8.410,-0.604,0.289,-0.291,-0.301,0.418,-0.292,-2.355,1.598,-0.511,0.077,-0.145,-0.086,-0.212,0.093,1.973,-0.138,0.061,1.714
8.437,-0.682,0.147,0.043,-0.305,0.422,-0.304,-2.361,1.605,-0.516,0.005,-0.171,-0.093,-0.212,0.094,1.972,-0.144,0.053,1.724
8.466,-0.976,0.267,0.520,-0.312,0.428,-0.316,-2.367,1.615,-0.523,-0.125,-0.290,0.081,-0.213,0.095,1.971,-0.141,0.050,1.733
8.494,-0.878,0.834,1.249,-0.327,0.439,-0.330,-2.380,1.631,-0.536,-0.104,-0.341,0.148,-0.213,0.095,1.971,-0.143,0.032,1.719
8.520,-0.685,0.910,1.804,-0.338,0.448,-0.333,-2.387,1.641,-0.543,0.023,-0.253,0.162,-0.213,0.095,1.970,-0.148,0.020,1.708
8.551,0.797,0.231,2.437,-0.352,0.464,-0.325,-2.400,1.658,-0.555,0.304,-0.246,-0.112,-0.214,0.095,1.970,-0.151,0.011,1.698
8.579,0.580,-0.777,1.349,-0.357,0.471,-0.315,-2.407,1.668,-0.562,0.402,-0.176,-0.237,-0.214,0.095,1.969,-0.157,0.008,1.691
8.608,-0.156,0.092,-0.680,-0.366,0.480,-0.298,-2.422,1.687,-0.574,0.731,0.517,0.518,-0.213,0.094,1.969,-0.172,0.015,1.708
8.635,-0.003,0.392,-1.269,-0.371,0.485,-0.293,-2.429,1.697,-0.580,0.795,0.558,0.727,-0.212,0.095,1.969,-0.201,0.029,1.685
8.663,0.501,0.184,-1.262,-0.374,0.489,-0.291,-2.436,1.706,-0.586,0.221,-0.269,-0.347,-0.209,0.096,1.970,-0.212,0.033,1.696
8.691,1.829,0.483,0.465,-0.373,0.499,-0.291,-2.451,1.726,-0.597,-0.183,-0.737,-0.659,-0.207,0.096,1.970,-0.199,0.016,1.719
8.719,2.246,0.229,0.611,-0.367,0.505,-0.290,-2.459,1.736,-0.603,-0.534,-0.964,-0.853,-0.205,0.096,1.969,-0.170,0.002,1.733
8.747,1.869,-0.799,-0.046,-0.358,0.509,-0.288,-2.466,1.746,-0.609,-1.080,-0.354,-0.754,-0.204,0.093,1.967,-0.153,-0.012,1.730
8.775,0.839,-0.708,-0.584,-0.333,0.511,-0.286,-2.480,1.766,-0.621,-1.080,0.248,-0.154,-0.204,0.092,1.966,-0.100,-0.002,1.768
8.804,0.073,-0.485,-0.942,-0.322,0.510,-0.287,-2.486,1.776,-0.626,-0.699,0.682,0.512,-0.206,0.091,1.963,-0.081,0.013,1.752
8.834,-0.643,-0.132,-1.107,-0.301,0.505,-0.294,-2.499,1.797,-0.638,-0.456,0.563,0.497,-0.208,0.091,1.962,-0.066,0.036,1.762
8.861,-0.935,0.124,-1.183,-0.295,0.503,-0.300,-2.505,1.807,-0.644,-0.175,0.308,0.385,-0.210,0.091,1.962,-0.063,0.042,1.760
8.889,-0.730,0.119,-0.816,-0.289,0.500,-0.318,-2.516,1.827,-0.656,0.321,-0.143,0.122,-0.213,0.091,1.961,-0.080,0.036,1.747
8.917,-0.538,-0.121,-0.606,-0.288,0.499,-0.328,-2.522,1.837,-0.663,0.417,-0.202,-0.016,-0.215,0.091,1.961,-0.094,0.032,1.749
8.944,-0.503,-0.486,-0.253,-0.289,0.498,-0.339,-2.529,1.849,-0.670,0.272,-0.162,-0.154,-0.216,0.091,1.960,-0.101,0.027,1.749
8.971,-0.624,-0.855,-0.099,-0.293,0.491,-0.355,-2.540,1.867,-0.683,0.161,0.020,-0.130,-0.217,0.091,1.960,-0.115,0.030,1.737
8.999,-0.749,-0.503,0.140,-0.297,0.486,-0.363,-2.546,1.877,-0.690,0.092,0.224,-0.001,-0.218,0.091,1.959,-0.124,0.037,1.729
9.027,-0.732,-0.601,0.276,-0.302,0.480,-0.369,-2.552,1.886,-0.698,0.197,0.435,0.099,-0.218,0.091,1.959,-0.125,0.045,1.721
9.055,-0.703,-0.606,0.344,-0.314,0.467,-0.378,-2.564,1.905,-0.713,0.250,0.369,0.123,-0.219,0.091,1.959,-0.141,0.065,1.726
9.082,-0.623,-0.358,0.419,-0.321,0.459,-0.381,-2.570,1.915,-0.721,0.299,0.210,0.134,-0.219,0.092,1.959,-0.152,0.070,1.732
9.109,-0.601,-0.464,0.738,-0.337,0.445,-0.383,-2.583,1.933,-0.735,0.298,-0.127,0.027,-0.218,0.094,1.958,-0.170,0.069,1.736
9.138,-0.559,-0.539,1.191,-0.345,0.437,-0.381,-2.590,1.941,-0.743,0.230,-0.225,0.012,-0.218,0.094,1.958,-0.174,0.065,1.738
9.166,-0.386,-0.144,1.564,-0.355,0.428,-0.376,-2.598,1.951,-0.752,0.231,-0.402,0.197,-0.217,0.095,1.959,-0.181,0.058,1.747
9.194,-0.033,1.432,0.394,-0.371,0.417,-0.363,-2.612,1.967,-0.766,0.368,-0.425,0.193,-0.216,0.095,1.959,-0.192,0.031,1.749
9.222,0.861,1.948,-0.037,-0.377,0.417,-0.356,-2.619,1.975,-0.773,0.437,-0.578,-0.061,-0.215,0.094,1.959,-0.201,0.020,1.747
9.251,1.864,-0.708,0.698,-0.381,0.420,-0.342,-2.634,1.992,-0.787,-0.381,-0.545,-0.948,-0.212,0.093,1.959,-0.184,0.003,1.757
9.277,2.021,-0.625,0.457,-0.377,0.419,-0.335,-2.642,2.000,-0.793,-0.787,-0.272,-0.743,-0.212,0.091,1.958,-0.152,0.007,1.771
9.308,1.027,0.364,-0.166,-0.360,0.417,-0.320,-2.657,2.017,-0.807,-0.750,0.214,0.002,-0.212,0.089,1.956,-0.111,0.011,1.764
9.335,0.651,0.516,-0.647,-0.350,0.417,-0.315,-2.664,2.025,-0.813,-0.553,0.301,0.134,-0.212,0.088,1.954,-0.101,0.017,1.768
9.361,0.112,0.735,-0.892,-0.339,0.419,-0.311,-2.672,2.035,-0.820,-0.403,0.319,0.171,-0.213,0.087,1.953,-0.091,0.018,1.773
9.390,-0.325,0.301,-1.612,-0.325,0.425,-0.312,-2.684,2.051,-0.832,-0.160,0.119,0.167,-0.216,0.086,1.952,-0.086,0.021,1.803
9.416,-0.269,0.019,-1.781,-0.319,0.428,-0.317,-2.690,2.059,-0.838,-0.001,0.024,0.075,-0.217,0.085,1.951,-0.087,0.021,1.807
9.442,-0.206,-0.244,-1.947,-0.314,0.431,-0.325,-2.697,2.068,-0.844,0.236,-0.115,0.022,-0.219,0.084,1.950,-0.093,0.022,1.793
9.472,-0.609,0.041,-1.864,-0.308,0.435,-0.351,-2.709,2.086,-0.858,0.265,-0.184,0.143,-0.220,0.084,1.949,-0.111,0.014,1.769
9.500,-0.975,0.438,-1.758,-0.307,0.437,-0.366,-2.715,2.094,-0.865,0.248,-0.188,0.274,-0.221,0.083,1.949,-0.116,0.009,1.757
9.528,-1.339,0.287,-1.182,-0.313,0.443,-0.402,-2.728,2.111,-0.880,0.220,-0.073,0.292,-0.221,0.081,1.948,-0.133,-0.001,1.748
9.555,-1.301,0.293,-0.888,-0.320,0.446,-0.421,-2.734,2.120,-0.888,0.235,-0.016,0.183,-0.222,0.081,1.948,-0.154,-0.008,1.730
9.582,-1.223,0.671,-0.115,-0.328,0.451,-0.440,-2.741,2.130,-0.898,0.070,0.110,0.040,-0.222,0.079,1.949,-0.158,-0.008,1.741
9.611,-0.428,0.371,2.381,-0.347,0.462,-0.464,-2.754,2.148,-0.915,-0.247,0.076,0.027,-0.222,0.079,1.949,-0.160,-0.011,1.738
9.639,-0.449,-0.198,2.634,-0.357,0.467,-0.468,-2.761,2.157,-0.925,-0.597,-0.294,-0.051,-0.222,0.078,1.949,-0.152,-0.016,1.737
9.666,-0.640,0.363,2.532,-0.367,0.473,-0.466,-2.768,2.166,-0.934,0.020,0.004,0.315,-0.223,0.076,1.950,-0.145,-0.021,1.745
9.694,-0.158,0.569,2.010,-0.387,0.486,-0.451,-2.783,2.185,-0.952,0.260,0.110,0.197,-0.224,0.076,1.951,-0.154,-0.027,1.747
9.722,0.378,-1.037,1.725,-0.396,0.492,-0.438,-2.791,2.195,-0.961,0.338,0.062,-0.049,-0.224,0.075,1.951,-0.159,-0.018,1.756
9.750,0.844,-0.323,1.054,-0.407,0.496,-0.408,-2.807,2.215,-0.978,0.329,0.083,0.156,-0.224,0.074,1.952,-0.165,-0.012,1.755
9.777,1.133,-0.003,1.003,-0.409,0.497,-0.390,-2.816,2.226,-0.987,0.321,-0.073,0.199,-0.224,0.073,1.953,-0.172,-0.014,1.754
9.805,1.655,0.004,0.713,-0.408,0.498,-0.374,-2.824,2.236,-0.994,0.128,-0.728,-0.318,-0.223,0.072,1.954,-0.163,-0.020,1.760
9.833,1.611,0.642,0.161,-0.398,0.500,-0.345,-2.840,2.255,-1.008,0.021,-0.839,-0.376,-0.222,0.070,1.954,-0.151,-0.051,1.775
9.861,1.302,0.078,-0.610,-0.388,0.502,-0.332,-2.848,2.265,-1.015,-0.039,-0.651,-0.380,-0.222,0.068,1.954,-0.151,-0.063,1.779
9.890,0.543,-0.734,-2.500,-0.367,0.503,-0.319,-2.863,2.285,-1.028,-0.039,0.402,-0.203,-0.221,0.064,1.954,-0.143,-0.049,1.795
9.917,0.294,-0.681,-2.872,-0.356,0.501,-0.320,-2.870,2.295,-1.034,-0.055,0.663,-0.053,-0.220,0.063,1.953,-0.139,-0.026,1.797
9.946,0.232,-0.693,-2.808,-0.346,0.499,-0.327,-2.877,2.305,-1.041,-0.097,0.310,0.061,-0.220,0.061,1.953,-0.138,-0.013,1.781
9.974,0.068,-0.000,-2.127,-0.327,0.491,-0.354,-2.890,2.325,-1.054,-0.081,-0.081,0.005,-0.219,0.060,1.952,-0.134,-0.001,1.772
10.001,-0.020,0.493,-1.625,-0.319,0.488,-0.372,-2.897,2.335,-1.062,-0.034,-0.402,-0.038,-0.219,0.059,1.952,-0.133,-0.015,1.782
10.030,-0.099,-0.263,-1.742,-0.306,0.485,-0.411,-2.909,2.354,-1.077,0.001,-0.304,-0.199,-0.219,0.057,1.951,-0.135,-0.027,1.793
10.058,-0.244,-0.968,-1.564,-0.301,0.482,-0.432,-2.915,2.364,-1.086,-0.150,0.026,-0.287,-0.219,0.056,1.951,-0.134,-0.026,1.795
10.086,-0.282,-0.902,-1.001,-0.297,0.478,-0.454,-2.921,2.373,-1.095,-0.579,0.364,-0.161,-0.219,0.054,1.949,-0.131,-0.012,1.779
10.114,-0.557,-0.713,0.237,-0.292,0.467,-0.496,-2.933,2.392,-1.114,-0.578,0.342,-0.090,-0.220,0.053,1.948,-0.115,0.006,1.794
10.141,-0.765,-1.269,0.676,-0.291,0.459,-0.512,-2.939,2.401,-1.124,-0.415,0.370,-0.065,-0.221,0.052,1.947,-0.108,0.014,1.780
10.169,-1.050,-0.804,0.837,-0.296,0.440,-0.536,-2.951,2.419,-1.145,0.037,0.452,0.060,-0.223,0.052,1.946,-0.115,0.038,1.771
10.198,-0.839,0.085,0.714,-0.301,0.428,-0.545,-2.958,2.429,-1.157,0.230,0.315,0.162,-0.224,0.052,1.945,-0.126,0.042,1.772
10.226,-0.538,0.486,1.009,-0.307,0.420,-0.550,-2.964,2.438,-1.168,0.392,-0.078,0.043,-0.225,0.053,1.944,-0.134,0.043,1.765
10.253,0.608,0.653,1.721,-0.316,0.410,-0.552,-2.975,2.453,-1.188,0.191,-0.274,-0.247,-0.225,0.053,1.943,-0.145,0.032,1.763
10.280,0.342,0.399,1.661,-0.319,0.407,-0.548,-2.982,2.461,-1.199,0.104,-0.134,-0.134,-0.226,0.054,1.942,-0.144,0.028,1.772
10.309,0.358,2.833,0.869,-0.322,0.411,-0.533,-2.994,2.478,-1.221,-0.100,0.126,0.059,-0.226,0.054,1.941,-0.137,0.016,1.779
10.337,1.227,1.813,1.236,-0.321,0.419,-0.524,-3.001,2.486,-1.232,-0.476,-0.013,-0.373,-0.226,0.054,1.940,-0.127,0.016,1.788
10.365,2.084,-0.144,1.698,-0.318,0.428,-0.513,-3.007,2.494,-1.242,-0.987,0.301,-0.745,-0.228,0.055,1.938,-0.095,0.024,1.783
10.394,1.326,-0.454,1.106,-0.300,0.441,-0.485,-3.020,2.512,-1.262,-0.900,0.513,-0.265,-0.230,0.055,1.936,-0.047,0.047,1.809
10.421,0.654,0.667,0.335,-0.289,0.446,-0.470,-3.026,2.521,-1.272,-0.612,0.582,0.208,-0.232,0.056,1.935,-0.035,0.058,1.798
10.449,-0.274,1.461,-0.296,-0.269,0.462,-0.446,-3.037,2.539,-1.290,-0.089,0.084,0.076,-0.237,0.059,1.932,-0.026,0.053,1.792
10.478,-0.130,0.203,-0.467,-0.262,0.472,-0.437,-3.042,2.548,-1.299,-0.090,-0.169,-0.269,-0.239,0.060,1.930,-0.025,0.048,1.795
10.506,-0.073,-0.678,-1.198,-0.255,0.481,-0.430,-3.047,2.558,-1.307,-0.086,0.222,-0.187,-0.244,0.062,1.927,-0.023,0.045,1.796
10.533,-0.998,0.088,-2.361,-0.245,0.494,-0.427,-3.057,2.577,-1.324,0.032,0.432,0.126,-0.247,0.064,1.925,-0.032,0.063,1.785
10.562,-1.308,0.505,-2.516,-0.245,0.499,-0.434,-3.062,2.587,-1.333,0.180,0.376,0.316,-0.249,0.065,1.924,-0.051,0.062,1.774
10.588,-1.084,0.255,-3.078,-0.251,0.511,-0.461,-3.072,2.607,-1.351,0.536,-0.031,0.082,-0.252,0.068,1.922,-0.059,0.065,1.768
10.616,-0.844,-0.411,-2.796,-0.258,0.517,-0.483,-3.078,2.619,-1.361,0.558,-0.191,-0.164,-0.254,0.070,1.921,-0.096,0.056,1.754
10.643,-0.483,-0.735,-2.285,-0.264,0.520,-0.504,-3.082,2.628,-1.370,0.259,-0.228,-0.208,-0.255,0.072,1.919,-0.112,0.057,1.752
10.671,-0.203,-0.846,-0.440,-0.277,0.522,-0.552,-3.093,2.649,-1.391,0.093,-0.258,-0.088,-0.256,0.073,1.917,-0.122,0.054,1.751
10.699,-0.103,-0.454,0.261,-0.283,0.521,-0.574,-3.099,2.659,-1.403,0.056,-0.371,0.005,-0.257,0.074,1.916,-0.124,0.046,1.753
10.727,-0.094,0.150,0.888,-0.290,0.519,-0.595,-3.105,2.671,-1.416,0.208,-0.572,0.178,-0.257,0.075,1.914,-0.127,0.035,1.764
10.754,-0.248,0.676,1.883,-0.300,0.519,-0.618,-3.116,2.690,-1.438,0.250,-0.549,0.192,-0.257,0.074,1.913,-0.138,0.007,1.773
10.782,-0.343,0.140,1.708,-0.306,0.520,-0.623,-3.122,2.701,-1.451,0.265,-0.440,0.195,-0.257,0.074,1.912,-0.144,-0.002,1.775
10.809,-0.559,-0.613,2.144,-0.318,0.520,-0.620,-3.135,2.722,-1.476,0.257,0.049,0.257,-0.257,0.073,1.911,-0.160,-0.005,1.778
10.836,-0.543,-0.557,1.636,-0.325,0.518,-0.613,-3.141,2.732,-1.489,0.265,0.252,0.411,-0.257,0.072,1.911,-0.170,0.001,1.775
10.862,-0.216,0.479,0.715,-0.332,0.517,-0.605,-3.148,2.742,-1.500,0.940,0.112,0.640,-0.255,0.071,1.911,-0.179,0.007,1.781
10.892,0.990,1.048,0.617,-0.344,0.521,-0.589,-3.161,2.763,-1.524,0.659,-0.819,0.010,-0.253,0.071,1.912,-0.208,-0.020,1.773
10.919,2.701,0.033,1.954,-0.344,0.526,-0.578,-3.169,2.776,-1.538,0.097,-1.242,-0.632,-0.252,0.070,1.912,-0.191,-0.038,1.786
10.948,2.368,-0.712,1.199,-0.330,0.529,-0.554,-3.182,2.795,-1.559,-0.166,-0.707,-0.618,-0.249,0.066,1.912,-0.189,-0.056,1.795
10.974,1.601,-0.048,0.225,-0.317,0.529,-0.540,-3.188,2.805,-1.570,0.024,-0.277,-0.167,-0.247,0.064,1.911,-0.170,-0.065,1.796
11.002,1.178,-0.025,-1.093,-0.302,0.529,-0.528,-3.194,2.816,-1.580,0.220,0.088,-0.037,-0.246,0.061,1.910,-0.163,-0.060,1.802
11.029,1.120,-1.088,-1.455,-0.271,0.526,-0.516,-3.206,2.837,-1.601,-0.182,0.123,-0.232,-0.243,0.057,1.908,-0.154,-0.041,1.799
11.056,0.665,-0.828,-0.859,-0.254,0.521,-0.516,-3.211,2.847,-1.611,-0.360,-0.005,-0.050,-0.242,0.055,1.907,-0.147,-0.041,1.798
11.085,0.203,-0.395,-0.733,-0.238,0.515,-0.516,-3.216,2.858,-1.622,-0.116,0.044,0.232,-0.240,0.052,1.906,-0.140,-0.038,1.797
11.113,-0.292,-0.136,-1.030,-0.213,0.505,-0.522,-3.225,2.878,-1.642,0.076,0.044,0.186,-0.239,0.050,1.905,-0.143,-0.037,1.792
11.139,-0.399,-0.130,-1.186,-0.201,0.499,-0.528,-3.230,2.890,-1.655,0.204,0.044,0.115,-0.238,0.048,1.904,-0.147,-0.037,1.790
11.169,-0.507,-0.463,-1.537,-0.187,0.490,-0.545,-3.237,2.908,-1.674,0.283,0.160,0.050,-0.236,0.045,1.904,-0.164,-0.032,1.789
11.196,-0.447,-0.571,-1.397,-0.182,0.485,-0.556,-3.241,2.918,-1.685,0.271,0.235,0.037,-0.235,0.044,1.903,-0.175,-0.024,1.787
11.223,-0.368,-0.556,-1.218,-0.179,0.478,-0.570,-3.244,2.927,-1.697,0.238,0.225,0.029,-0.232,0.042,1.903,-0.180,-0.019,1.783
11.252,-0.585,-0.793,-1.105,-0.175,0.464,-0.599,-3.251,2.946,-1.720,0.239,0.241,0.038,-0.231,0.041,1.902,-0.195,-0.006,1.767
11.279,-0.503,-0.667,-0.563,-0.175,0.456,-0.615,-3.255,2.956,-1.733,0.156,0.305,0.039,-0.229,0.040,1.902,-0.204,0.004,1.759
11.308,-0.255,-0.136,0.567,-0.177,0.440,-0.640,-3.262,2.973,-1.757,-0.110,0.314,0.066,-0.226,0.040,1.902,-0.204,0.011,1.765
11.335,-0.105,0.188,0.825,-0.179,0.432,-0.649,-3.265,2.982,-1.770,-0.115,0.142,0.057,-0.225,0.040,1.901,-0.201,0.020,1.764
11.362,0.111,0.164,1.419,-0.180,0.425,-0.656,-3.269,2.991,-1.784,-0.054,-0.122,-0.002,-0.223,0.040,1.901,-0.199,0.017,1.772
11.391,-0.199,1.147,1.871,-0.182,0.418,-0.656,-3.276,3.007,-1.809,-0.209,-0.450,0.007,-0.221,0.039,1.901,-0.194,-0.007,1.774
11.419,0.213,1.969,0.883,-0.183,0.419,-0.651,-3.280,3.016,-1.823,-0.241,-0.177,0.133,-0.220,0.039,1.901,-0.189,-0.011,1.776
11.447,0.595,1.027,1.207,-0.183,0.423,-0.645,-3.283,3.024,-1.835,-0.393,-0.231,-0.281,-0.218,0.038,1.901,-0.179,-0.016,1.776
11.474,1.895,-0.374,2.406,-0.176,0.431,-0.622,-3.291,3.041,-1.861,-0.908,-0.439,-0.732,-0.218,0.037,1.900,-0.141,-0.021,1.795
11.501,0.974,-0.667,1.816,-0.168,0.433,-0.604,-3.294,3.050,-1.873,-0.865,0.357,-0.291,-0.219,0.036,1.900,-0.124,-0.013,1.788
11.528,-0.179,1.011,0.225,-0.151,0.436,-0.568,-3.300,3.067,-1.897,0.084,0.303,0.448,-0.220,0.035,1.899,-0.115,-0.002,1.769
11.554,0.054,0.949,-0.550,-0.145,0.440,-0.552,-3.303,3.076,-1.908,0.338,-0.149,0.092,-0.221,0.035,1.899,-0.122,-0.007,1.765
11.579,0.284,0.387,-1.097,-0.138,0.444,-0.540,-3.306,3.085,-1.919,0.232,-0.456,-0.258,-0.221,0.035,1.898,-0.126,-0.015,1.756
11.605,0.397,0.199,-1.462,-0.132,0.449,-0.531,-3.309,3.094,-1.929,-0.467,-0.200,-0.057,-0.222,0.033,1.897,-0.119,-0.026,1.753
11.632,-0.461,0.183,-1.568,-0.120,0.458,-0.524,-3.314,3.112,-1.950,-0.561,0.227,0.182,-0.223,0.032,1.897,-0.103,-0.028,1.761
11.656,-0.419,0.355,-2.047,-0.116,0.463,-0.527,-3.317,3.122,-1.962,-0.425,0.489,0.224,-0.224,0.032,1.897,-0.094,-0.019,1.759
11.682,-0.805,0.278,-1.884,-0.115,0.467,-0.532,-3.319,3.131,-1.972,-0.239,0.461,0.125,-0.225,0.031,1.897,-0.098,-0.013,1.758
11.707,-0.840,0.750,-1.756,-0.114,0.472,-0.541,-3.321,3.139,-1.982,0.172,-0.086,-0.039,-0.228,0.031,1.896,-0.097,-0.010,1.766
11.732,-0.692,-0.073,-1.770,-0.118,0.484,-0.566,-3.326,3.159,-2.004,0.359,-0.093,-0.128,-0.229,0.031,1.896,-0.115,-0.020,1.765
11.757,-0.355,-0.284,-1.316,-0.122,0.490,-0.585,-3.328,3.170,-2.018,0.446,-0.046,-0.125,-0.230,0.031,1.896,-0.129,-0.019,1.763
11.783,-0.058,-0.324,-0.756,-0.125,0.493,-0.599,-3.331,3.179,-2.028,0.331,-0.206,-0.044,-0.231,0.031,1.895,-0.137,-0.021,1.757
11.808,0.448,-0.565,0.753,-0.131,0.496,-0.626,-3.335,3.198,-2.052,0.221,-0.396,-0.044,-0.231,0.030,1.895,-0.143,-0.020,1.753
11.832,0.352,-0.239,0.912,-0.132,0.496,-0.636,-3.338,3.208,-2.064,0.090,-0.552,0.013,-0.231,0.030,1.895,-0.147,-0.037,1.740
11.857,0.010,-0.395,0.832,-0.132,0.495,-0.643,-3.341,3.218,-2.077,-0.013,-0.408,0.182,-0.231,0.029,1.894,-0.145,-0.045,1.730
11.882,-0.424,-0.511,0.933,-0.134,0.493,-0.649,-3.344,3.229,-2.091,-0.182,0.545,0.776,-0.231,0.027,1.895,-0.147,-0.042,1.738
11.908,-1.149,0.310,1.470,-0.140,0.489,-0.650,-3.349,3.248,-2.117,-0.191,0.575,0.865,-0.231,0.026,1.895,-0.142,-0.033,1.744
11.933,-1.157,0.643,1.993,-0.146,0.488,-0.646,-3.352,3.258,-2.130,-0.073,0.324,0.808,-0.231,0.026,1.897,-0.143,-0.023,1.765
11.958,-0.718,0.582,2.180,-0.153,0.489,-0.639,-3.355,3.267,-2.142,0.175,-0.027,0.696,-0.232,0.026,1.898,-0.151,-0.030,1.778
11.984,0.014,0.589,1.240,-0.161,0.491,-0.627,-3.358,3.278,-2.156,0.734,-0.214,0.335,-0.231,0.026,1.903,-0.159,-0.036,1.786
12.009,0.387,0.394,0.686,-0.172,0.497,-0.605,-3.365,3.297,-2.180,0.867,-0.257,0.277,-0.231,0.025,1.905,-0.186,-0.052,1.785
12.034,0.575,0.029,0.268,-0.175,0.501,-0.594,-3.368,3.307,-2.192,0.822,-0.363,0.184,-0.229,0.025,1.907,-0.197,-0.059,1.785
12.059,0.744,-0.033,0.233,-0.177,0.504,-0.583,-3.372,3.317,-2.203,0.619,-0.340,0.026,-0.228,0.024,1.910,-0.208,-0.066,1.797
12.086,0.785,0.498,0.294,-0.177,0.508,-0.571,-3.376,3.329,-2.217,0.017,-0.101,-0.140,-0.224,0.022,1.914,-0.207,-0.072,1.818
12.111,1.143,0.231,-0.147,-0.172,0.517,-0.554,-3.382,3.347,-2.238,-0.391,0.099,-0.292,-0.222,0.021,1.916,-0.189,-0.068,1.832
12.136,1.274,-0.313,-0.605,-0.167,0.521,-0.548,-3.385,3.357,-2.248,-0.489,0.308,-0.357,-0.220,0.020,1.918,-0.180,-0.061,1.830
12.161,1.063,-0.412,-1.090,-0.159,0.525,-0.543,-3.389,3.368,-2.259,-0.459,0.465,-0.233,-0.219,0.020,1.919,-0.161,-0.045,1.825
12.187,0.648,-0.274,-1.330,-0.149,0.527,-0.541,-3.392,3.380,-2.272,-0.199,0.549,0.046,-0.218,0.019,1.922,-0.154,-0.034,1.804
12.213,0.163,-0.525,-1.479,-0.134,0.530,-0.545,-3.398,3.400,-2.292,-0.086,0.496,0.011,-0.217,0.020,1.924,-0.146,-0.010,1.798
12.238,0.059,-0.646,-1.761,-0.126,0.529,-0.552,-3.400,3.411,-2.303,0.029,0.408,-0.004,-0.217,0.020,1.925,-0.147,0.004,1.793
12.263,-0.213,-0.683,-2.014,-0.120,0.527,-0.562,-3.403,3.421,-2.314,0.330,0.238,0.239,-0.215,0.022,1.927,-0.150,0.010,1.801
12.291,-1.082,0.633,-1.201,-0.111,0.522,-0.589,-3.407,3.442,-2.337,0.389,0.116,0.260,-0.215,0.023,1.929,-0.170,0.017,1.796
12.318,-0.725,0.555,-1.278,-0.110,0.521,-0.605,-3.409,3.453,-2.349,0.367,-0.010,0.093,-0.213,0.025,1.930,-0.184,0.011,1.796
12.346,-0.557,-0.096,-1.054,-0.110,0.521,-0.622,-3.412,3.463,-2.361,0.054,0.227,-0.290,-0.211,0.027,1.933,-0.189,0.011,1.809
12.374,-0.054,-1.085,-0.162,-0.113,0.518,-0.655,-3.416,3.484,-2.387,-0.175,0.538,-0.226,-0.210,0.028,1.934,-0.189,0.034,1.815
12.400,-0.088,-0.661,0.379,-0.114,0.513,-0.671,-3.419,3.495,-2.401,-0.374,0.771,-0.067,-0.209,0.030,1.935,-0.183,0.053,1.819
12.430,0.096,-0.634,1.662,-0.116,0.504,-0.689,-3.423,3.514,-2.427,-0.290,0.611,0.061,-0.207,0.034,1.937,-0.170,0.085,1.826
12.457,0.912,-1.291,2.103,-0.117,0.498,-0.693,-3.425,3.524,-2.441,0.007,0.210,-0.055,-0.207,0.037,1.938,-0.170,0.089,1.828
12.484,1.316,-0.796,1.518,-0.115,0.490,-0.692,-3.428,3.534,-2.455,0.524,-0.673,-0.073,-0.205,0.041,1.939,-0.168,0.090,1.842
12.513,-0.429,-0.307,1.061,-0.108,0.472,-0.684,-3.432,3.554,-2.483,0.555,-0.629,0.292,-0.204,0.043,1.940,-0.194,0.064,1.827
12.540,-0.806,1.869,0.428,-0.106,0.466,-0.678,-3.434,3.563,-2.496,0.530,-0.436,0.698,-0.203,0.044,1.941,-0.205,0.053,1.829
12.566,-0.990,2.641,0.506,-0.106,0.464,-0.671,-3.436,3.572,-2.510,0.266,-0.412,0.255,-0.200,0.046,1.944,-0.219,0.025,1.839
12.595,1.549,-0.481,0.315,-0.106,0.471,-0.657,-3.441,3.591,-2.536,-0.166,-0.534,-0.468,-0.198,0.046,1.945,-0.209,0.014,1.852
12.622,1.225,-0.461,0.641,-0.103,0.473,-0.650,-3.443,3.600,-2.549,-0.677,-0.509,-0.817,-0.196,0.046,1.947,-0.196,0.007,1.853
12.649,0.245,1.881,0.720,-0.092,0.480,-0.635,-3.447,3.619,-2.575,-0.953,0.038,-0.005,-0.195,0.046,1.948,-0.151,0.002,1.862
12.677,0.191,1.523,0.895,-0.086,0.488,-0.626,-3.448,3.629,-2.588,-0.808,0.117,0.123,-0.195,0.046,1.948,-0.131,-0.005,1.859
12.704,0.417,0.941,0.443,-0.081,0.497,-0.617,-3.450,3.639,-2.600,-0.250,-0.189,-0.535,-0.197,0.046,1.949,-0.120,-0.005,1.854
12.733,0.143,-0.273,-0.759,-0.069,0.515,-0.601,-3.453,3.659,-2.624,-0.092,0.046,-0.359,-0.198,0.046,1.949,-0.110,-0.005,1.856
12.760,-0.257,-0.068,-1.378,-0.064,0.522,-0.597,-3.454,3.670,-2.636,-0.006,0.236,-0.127,-0.199,0.046,1.949,-0.112,-0.000,1.838
12.788,-0.850,0.256,-2.236,-0.059,0.535,-0.601,-3.457,3.691,-2.660,0.143,0.323,0.045,-0.200,0.046,1.949,-0.114,0.006,1.821
12.815,-1.025,0.326,-2.383,-0.059,0.542,-0.609,-3.458,3.702,-2.673,0.232,0.330,0.039,-0.201,0.046,1.949,-0.130,0.014,1.803
12.842,-0.816,-0.025,-2.195,-0.061,0.547,-0.620,-3.459,3.712,-2.685,0.186,0.108,-0.143,-0.202,0.048,1.948,-0.145,0.018,1.803
12.870,-0.458,-0.345,-1.598,-0.069,0.557,-0.651,-3.462,3.734,-2.710,0.094,-0.095,-0.164,-0.202,0.048,1.948,-0.157,0.021,1.792
12.899,-0.869,-0.454,-0.495,-0.074,0.559,-0.668,-3.463,3.746,-2.723,0.039,-0.142,-0.027,-0.202,0.049,1.948,-0.157,0.018,1.804
12.927,-1.166,0.376,0.134,-0.081,0.562,-0.687,-3.465,3.759,-2.739,0.045,0.048,0.331,-0.203,0.050,1.948,-0.167,0.011,1.816
12.954,-0.789,0.697,1.182,-0.097,0.569,-0.709,-3.468,3.779,-2.765,0.122,0.138,0.259,-0.203,0.050,1.948,-0.176,0.006,1.804
12.982,-0.484,0.462,1.467,-0.107,0.575,-0.716,-3.470,3.791,-2.779,0.230,0.115,0.095,-0.203,0.051,1.948,-0.181,0.008,1.817
13.009,0.129,0.117,1.537,-0.124,0.585,-0.718,-3.475,3.814,-2.808,0.524,0.010,-0.188,-0.202,0.052,1.948,-0.200,0.007,1.806
13.036,0.251,-0.058,1.436,-0.131,0.590,-0.715,-3.478,3.826,-2.822,0.616,0.053,-0.210,-0.202,0.053,1.948,-0.210,0.010,1.801
13.064,0.242,-0.362,1.416,-0.137,0.594,-0.709,-3.480,3.838,-2.836,0.660,0.108,-0.143,-0.199,0.054,1.948,-0.223,0.013,1.796
13.093,0.133,-0.005,-0.090,-0.147,0.600,-0.694,-3.486,3.862,-2.864,0.656,0.109,-0.044,-0.197,0.055,1.948,-0.249,0.020,1.782
13.120,0.091,0.212,-0.040,-0.151,0.603,-0.686,-3.489,3.876,-2.881,0.597,0.055,0.062,-0.195,0.056,1.947,-0.260,0.020,1.782
13.150,2.036,-0.395,0.763,-0.152,0.607,-0.675,-3.495,3.898,-2.905,0.028,-0.497,-0.294,-0.190,0.057,1.947,-0.252,0.014,1.809
13.177,2.528,-0.999,0.899,-0.147,0.608,-0.668,-3.498,3.910,-2.919,-0.384,-0.715,-0.561,-0.188,0.057,1.946,-0.245,0.002,1.816
13.204,2.375,-0.681,0.667,-0.137,0.606,-0.659,-3.501,3.922,-2.932,-0.836,-0.508,-0.114,-0.185,0.056,1.945,-0.213,-0.001,1.836
13.233,0.919,0.734,-0.077,-0.110,0.605,-0.642,-3.506,3.946,-2.958,-0.704,-0.161,0.302,-0.184,0.055,1.944,-0.175,-0.019,1.855
13.258,0.574,0.810,-0.402,-0.096,0.606,-0.636,-3.508,3.958,-2.971,-0.468,0.032,0.464,-0.183,0.054,1.943,-0.167,-0.020,1.848
13.287,0.480,0.421,-0.904,-0.082,0.609,-0.631,-3.510,3.971,-2.984,-0.180,0.048,0.130,-0.183,0.053,1.942,-0.156,-0.022,1.850
13.315,0.099,-0.469,-2.165,-0.056,0.613,-0.629,-3.512,3.995,-3.009,-0.128,0.123,0.006,-0.183,0.052,1.942,-0.150,-0.015,1.854
13.342,-0.126,-0.510,-2.623,-0.043,0.614,-0.637,-3.513,4.009,-3.023,-0.064,0.649,0.178,-0.183,0.051,1.942,-0.150,-0.002,1.853
13.370,-0.426,-0.334,-2.351,-0.026,0.612,-0.661,-3.515,4.032,-3.047,-0.139,0.718,0.219,-0.184,0.052,1.942,-0.151,0.031,1.853
13.397,-0.402,-0.306,-1.754,-0.020,0.611,-0.678,-3.515,4.044,-3.061,-0.172,0.370,0.123,-0.184,0.052,1.942,-0.153,0.039,1.845
13.423,-0.311,-0.524,-1.253,-0.015,0.608,-0.697,-3.516,4.056,-3.074,0.056,0.072,0.018,-0.185,0.054,1.943,-0.151,0.041,1.855
13.452,-0.615,-0.192,-0.661,-0.009,0.602,-0.735,-3.516,4.080,-3.103,0.138,0.186,0.087,-0.185,0.055,1.943,-0.161,0.047,1.848
13.478,-0.496,-0.671,-0.180,-0.008,0.598,-0.753,-3.516,4.092,-3.118,0.062,0.277,0.017,-0.185,0.056,1.943,-0.168,0.056,1.842
13.506,-0.246,-1.260,0.309,-0.008,0.592,-0.769,-3.516,4.104,-3.133,-0.285,0.365,-0.099,-0.186,0.059,1.944,-0.166,0.062,1.847
13.534,-0.264,-1.062,1.170,-0.008,0.576,-0.793,-3.517,4.128,-3.164,-0.326,0.495,0.037,-0.186,0.060,1.944,-0.157,0.086,1.856
13.561,-0.406,-0.589,1.561,-0.010,0.567,-0.799,-3.517,4.139,-3.180,-0.293,0.531,0.167,-0.187,0.062,1.944,-0.155,0.099,1.860
13.589,-0.533,0.636,2.338,-0.015,0.549,-0.799,-3.517,4.161,-3.212,-0.093,-0.071,0.193,-0.188,0.066,1.945,-0.153,0.098,1.864
13.617,-0.514,0.801,2.262,-0.018,0.544,-0.792,-3.518,4.172,-3.228,0.061,-0.356,0.079,-0.189,0.068,1.946,-0.155,0.090,1.866
13.645,-0.093,0.775,1.351,-0.022,0.540,-0.782,-3.518,4.183,-3.244,0.378,-0.053,0.020,-0.191,0.071,1.947,-0.159,0.079,1.871
13.672,1.190,1.096,0.875,-0.027,0.541,-0.760,-3.519,4.205,-3.275,0.381,-0.067,-0.143,-0.191,0.073,1.947,-0.163,0.074,1.866
13.697,2.133,0.376,1.323,-0.025,0.544,-0.747,-3.520,4.216,-3.290,0.148,-0.280,-0.557,-0.191,0.074,1.947,-0.166,0.070,1.868
13.724,2.098,-0.272,1.156,-0.019,0.547,-0.733,-3.520,4.227,-3.305,-0.380,-0.100,-0.486,-0.192,0.076,1.947,-0.146,0.073,1.865
13.753,0.911,1.275,0.260,0.001,0.553,-0.705,-3.520,4.249,-3.334,-0.406,0.132,0.006,-0.192,0.077,1.946,-0.121,0.069,1.869
13.780,0.821,1.526,0.314,0.012,0.559,-0.692,-3.520,4.260,-3.348,-0.299,0.205,0.177,-0.193,0.078,1.946,-0.116,0.072,1.865
13.808,1.081,0.514,0.406,0.037,0.576,-0.667,-3.519,4.282,-3.375,-0.309,-0.269,-0.354,-0.195,0.080,1.945,-0.102,0.068,1.861
13.835,0.494,-0.241,-1.006,0.050,0.584,-0.656,-3.518,4.294,-3.388,-0.266,-0.226,-0.326,-0.196,0.080,1.944,-0.086,0.062,1.871
13.860,0.121,-0.079,-2.065,0.063,0.592,-0.649,-3.517,4.307,-3.402,-0.072,0.082,-0.062,-0.197,0.081,1.943,-0.085,0.064,1.876
13.890,-0.960,0.387,-2.831,0.081,0.604,-0.652,-3.514,4.330,-3.427,0.331,0.535,0.431,-0.199,0.083,1.941,-0.102,0.079,1.875
13.917,-0.942,0.374,-2.764,0.087,0.610,-0.662,-3.513,4.342,-3.440,0.384,0.421,0.481,-0.200,0.084,1.941,-0.121,0.080,1.867
13.944,-0.823,0.158,-2.433,0.090,0.616,-0.675,-3.511,4.354,-3.453,0.210,-0.200,-0.034,-0.201,0.087,1.941,-0.130,0.082,1.889
13.972,-0.378,0.037,-1.306,0.092,0.627,-0.710,-3.507,4.379,-3.481,0.116,-0.169,0.007,-0.201,0.088,1.941,-0.143,0.073,1.889
13.999,-0.468,-0.048,-0.703,0.092,0.632,-0.729,-3.505,4.392,-3.496,0.042,-0.067,0.094,-0.201,0.089,1.941,-0.148,0.070,1.894
14.027,-0.708,0.147,0.021,0.090,0.636,-0.746,-3.504,4.404,-3.510,0.016,-0.097,0.142,-0.201,0.091,1.941,-0.149,0.068,1.894
14.056,-0.698,-0.138,0.774,0.084,0.644,-0.774,-3.500,4.430,-3.541,0.120,-0.104,0.108,-0.201,0.092,1.942,-0.158,0.061,1.886
14.083,-0.740,-0.099,0.854,0.079,0.647,-0.784,-3.498,4.443,-3.557,0.277,-0.015,0.162,-0.201,0.093,1.942,-0.169,0.058,1.894
14.111,-0.890,0.151,1.318,0.066,0.652,-0.794,-3.496,4.469,-3.588,0.204,-0.044,0.164,-0.201,0.094,1.943,-0.186,0.053,1.894
14.139,-0.841,0.345,1.826,0.058,0.655,-0.794,-3.494,4.482,-3.604,0.125,-0.042,0.138,-0.200,0.095,1.944,-0.189,0.052,1.895
14.166,-0.725,0.213,1.548,0.049,0.657,-0.791,-3.493,4.495,-3.620,0.228,0.122,0.073,-0.199,0.096,1.945,-0.197,0.048,1.897
14.194,-0.068,-0.799,0.490,0.030,0.661,-0.778,-3.492,4.521,-3.651,0.220,0.484,0.007,-0.199,0.097,1.946,-0.208,0.064,1.894
14.222,0.254,-0.656,0.435,0.023,0.660,-0.771,-3.491,4.535,-3.666,-0.123,1.005,-0.093,-0.197,0.099,1.947,-0.210,0.082,1.898
14.250,1.137,-0.080,0.856,0.012,0.657,-0.756,-3.490,4.561,-3.697,-0.265,0.661,-0.182,-0.197,0.102,1.947,-0.198,0.120,1.906
14.277,1.295,0.166,0.897,0.011,0.655,-0.746,-3.490,4.575,-3.714,-0.291,0.153,-0.270,-0.196,0.104,1.948,-0.181,0.126,1.916
14.305,1.510,0.494,0.861,0.013,0.654,-0.737,-3.490,4.587,-3.727,-0.104,-0.375,-0.324,-0.196,0.108,1.948,-0.177,0.122,1.922
14.332,1.651,0.171,-0.035,0.024,0.655,-0.716,-3.489,4.613,-3.756,0.053,-0.367,-0.310,-0.196,0.110,1.948,-0.162,0.111,1.933
14.360,1.400,0.121,-0.542,0.034,0.656,-0.708,-3.489,4.626,-3.770,0.151,-0.346,-0.244,-0.195,0.111,1.947,-0.152,0.109,1.946
14.388,0.962,0.084,-1.305,0.058,0.659,-0.699,-3.487,4.653,-3.798,-0.100,-0.331,-0.076,-0.195,0.114,1.946,-0.155,0.102,1.933
14.415,0.620,-0.252,-1.568,0.071,0.660,-0.699,-3.486,4.666,-3.812,-0.320,-0.115,0.022,-0.195,0.115,1.946,-0.138,0.095,1.939
14.442,0.251,-0.360,-2.147,0.084,0.660,-0.703,-3.484,4.679,-3.826,-0.439,0.216,0.149,-0.195,0.116,1.945,-0.128,0.103,1.940
14.469,-0.559,-0.265,-2.487,0.105,0.658,-0.723,-3.480,4.705,-3.855,-0.316,0.523,0.393,-0.196,0.117,1.945,-0.123,0.120,1.942
14.496,-0.823,-0.122,-2.543,0.112,0.657,-0.739,-3.478,4.719,-3.869,-0.116,0.453,0.430,-0.197,0.119,1.945,-0.123,0.128,1.943
14.523,-0.801,-0.260,-2.286,0.117,0.655,-0.758,-3.476,4.732,-3.884,0.221,-0.092,0.139,-0.198,0.122,1.946,-0.136,0.131,1.936
14.551,-0.230,-0.806,-1.078,0.122,0.650,-0.801,-3.471,4.758,-3.916,0.215,-0.318,-0.061,-0.198,0.124,1.946,-0.149,0.127,1.924
14.578,-0.059,-0.785,-0.520,0.123,0.646,-0.822,-3.469,4.771,-3.932,0.035,-0.204,-0.099,-0.199,0.125,1.946,-0.150,0.123,1.926
14.603,-0.032,-0.808,0.314,0.125,0.640,-0.842,-3.466,4.784,-3.949,-0.053,0.016,-0.011,-0.199,0.127,1.947,-0.151,0.127,1.936
14.631,-0.024,-0.838,0.644,0.127,0.626,-0.872,-3.461,4.809,-3.983,0.079,0.059,0.064,-0.200,0.128,1.948,-0.154,0.133,1.933
14.656,-0.242,-0.561,0.500,0.127,0.617,-0.883,-3.458,4.821,-4.000,0.241,0.023,0.150,-0.200,0.130,1.948,-0.160,0.133,1.931
14.681,-0.366,-0.069,0.666,0.127,0.609,-0.891,-3.456,4.834,-4.018,0.285,-0.117,0.181,-0.200,0.131,1.948,-0.169,0.129,1.921
14.706,-0.195,-0.010,1.614,0.127,0.601,-0.897,-3.453,4.847,-4.038,0.193,-0.480,0.094,-0.200,0.132,1.950,-0.173,0.123,1.920
14.732,-0.496,0.327,2.283,0.125,0.589,-0.895,-3.448,4.870,-4.072,0.360,-0.596,0.175,-0.199,0.132,1.950,-0.184,0.100,1.918
14.757,-0.824,2.023,-0.006,0.122,0.587,-0.890,-3.446,4.881,-4.090,0.633,-0.563,0.250,-0.199,0.132,1.951,-0.200,0.073,1.917
14.785,0.349,1.122,0.315,0.120,0.588,-0.884,-3.443,4.893,-4.107,-0.334,-0.718,-0.712,-0.197,0.131,1.953,-0.210,0.061,1.927
14.812,3.387,-0.347,2.867,0.126,0.592,-0.865,-3.439,4.917,-4.142,-1.191,-0.545,-1.049,-0.196,0.130,1.953,-0.162,0.047,1.957
14.837,2.236,-0.802,2.600,0.137,0.592,-0.848,-3.436,4.929,-4.159,-1.379,-0.277,-0.689,-0.197,0.129,1.952,-0.121,0.053,1.982
14.863,0.857,0.467,1.448,0.150,0.592,-0.829,-3.433,4.940,-4.175,-0.329,0.288,0.814,-0.199,0.126,1.951,-0.103,0.055,1.980
14.889,-0.720,1.715,-0.393,0.174,0.599,-0.792,-3.427,4.964,-4.209,0.287,0.189,0.833,-0.200,0.125,1.951,-0.103,0.051,1.974
14.914,-0.624,1.264,-1.064,0.182,0.607,-0.778,-3.423,4.976,-4.224,0.639,-0.132,0.382,-0.201,0.124,1.952,-0.118,0.036,1.962
14.939,-0.507,0.451,-1.577,0.188,0.616,-0.768,-3.419,4.988,-4.240,0.698,-0.439,-0.092,-0.202,0.123,1.953,-0.132,0.027,1.958
14.964,-0.263,-0.063,-2.243,0.192,0.624,-0.763,-3.416,5.000,-4.254,0.186,-0.266,-0.341,-0.202,0.120,1.953,-0.146,0.018,1.956
14.991,-0.128,0.290,-1.482,0.200,0.639,-0.765,-3.408,5.026,-4.286,-0.197,-0.013,-0.287,-0.202,0.118,1.953,-0.147,0.011,1.957
15.016,-0.011,0.339,-1.173,0.202,0.646,-0.770,-3.404,5.039,-4.301,-0.404,0.151,-0.275,-0.202,0.117,1.953,-0.140,0.015,1.963
15.041,-0.131,0.291,-1.085,0.205,0.653,-0.777,-3.400,5.052,-4.316,-0.428,0.257,-0.281,-0.203,0.115,1.953,-0.131,0.018,1.959
15.067,-0.570,0.680,-0.937,0.206,0.659,-0.785,-3.396,5.064,-4.331,-0.106,0.373,-0.170,-0.204,0.114,1.952,-0.125,0.025,1.944
15.092,-0.736,0.333,-1.245,0.204,0.675,-0.805,-3.387,5.092,-4.364,0.149,0.395,-0.136,-0.204,0.113,1.952,-0.132,0.035,1.941
15.118,-0.732,0.061,-1.147,0.201,0.683,-0.819,-3.383,5.107,-4.382,0.338,0.345,-0.150,-0.205,0.113,1.951,-0.146,0.039,1.939
15.143,-0.981,-0.106,-0.644,0.197,0.689,-0.830,-3.379,5.119,-4.397,0.362,0.192,-0.162,-0.205,0.112,1.949,-0.155,0.044,1.937
15.170,-1.321,0.151,0.293,0.184,0.700,-0.854,-3.372,5.147,-4.430,0.203,0.116,0.109,-0.205,0.112,1.948,-0.177,0.047,1.938
15.197,-1.276,0.258,0.703,0.174,0.706,-0.863,-3.368,5.161,-4.447,0.164,0.101,0.227,-0.205,0.112,1.948,-0.190,0.043,1.919
15.226,-1.087,0.025,1.184,0.161,0.711,-0.870,-3.364,5.177,-4.467,0.170,-0.020,0.319,-0.204,0.113,1.947,-0.193,0.044,1.931
15.254,-0.629,0.033,1.384,0.139,0.719,-0.874,-3.359,5.204,-4.500,0.257,-0.312,0.281,-0.204,0.113,1.947,-0.209,0.033,1.926
15.278,-0.404,0.139,2.434,0.127,0.723,-0.870,-3.356,5.218,-4.517,0.282,-0.643,0.104,-0.203,0.113,1.947,-0.217,0.018,1.926
15.302,0.441,0.295,2.853,0.116,0.727,-0.862,-3.354,5.233,-4.534,0.255,-0.712,-0.165,-0.202,0.112,1.947,-0.222,0.005,1.937
15.326,0.666,-0.406,2.160,0.107,0.730,-0.848,-3.351,5.249,-4.553,0.528,0.184,-0.169,-0.200,0.110,1.946,-0.225,0.002,1.920
15.350,0.129,-0.056,-0.017,0.095,0.732,-0.820,-3.347,5.276,-4.585,0.637,0.468,0.203,-0.198,0.109,1.946,-0.248,0.016,1.905
15.374,0.863,-0.143,-0.651,0.091,0.732,-0.808,-3.345,5.291,-4.601,0.508,0.226,0.133,-0.197,0.109,1.946,-0.258,0.020,1.899
15.398,1.784,-0.772,-0.587,0.090,0.732,-0.798,-3.344,5.306,-4.617,0.169,-0.114,-0.357,-0.195,0.108,1.945,-0.246,0.030,1.911
15.422,1.980,-1.392,-0.859,0.093,0.729,-0.791,-3.342,5.320,-4.633,-0.116,-0.101,-0.589,-0.193,0.108,1.945,-0.244,0.031,1.907
15.446,1.637,-1.338,-1.212,0.099,0.723,-0.787,-3.340,5.335,-4.649,-0.237,0.159,-0.209,-0.190,0.107,1.943,-0.226,0.050,1.907
15.470,1.294,0.256,-0.697,0.118,0.710,-0.786,-3.336,5.364,-4.680,-0.268,-0.081,-0.162,-0.188,0.107,1.942,-0.204,0.055,1.904
15.494,1.408,0.440,-0.293,0.131,0.705,-0.788,-3.333,5.378,-4.696,-0.421,-0.437,-0.266,-0.187,0.106,1.941,-0.195,0.047,1.889
15.519,1.534,-0.157,-0.589,0.144,0.701,-0.790,-3.330,5.391,-4.711,-0.611,-0.534,-0.458,-0.186,0.105,1.939,-0.169,0.044,1.890
15.542,1.156,-1.090,-1.076,0.160,0.696,-0.794,-3.327,5.406,-4.728,-0.691,0.269,-0.272,-0.186,0.103,1.936,-0.155,0.041,1.873
15.571,-0.217,-0.503,-2.186,0.190,0.682,-0.809,-3.320,5.433,-4.760,-0.610,0.601,0.119,-0.186,0.103,1.934,-0.126,0.067,1.873
15.598,-0.783,-0.281,-1.932,0.202,0.675,-0.822,-3.316,5.447,-4.776,-0.489,0.670,0.315,-0.187,0.102,1.933,-0.126,0.080,1.861
15.626,-0.923,-0.052,-1.885,0.210,0.668,-0.837,-3.312,5.460,-4.793,-0.156,0.260,0.219,-0.189,0.103,1.930,-0.119,0.090,1.849
15.654,-1.084,0.019,-1.332,0.221,0.655,-0.873,-3.304,5.487,-4.827,0.082,-0.018,0.116,-0.190,0.103,1.929,-0.128,0.092,1.843
15.681,-1.059,-0.715,-0.476,0.222,0.649,-0.891,-3.299,5.500,-4.844,0.297,-0.215,0.035,-0.192,0.104,1.928,-0.145,0.090,1.825
15.710,-0.623,-1.239,0.112,0.218,0.634,-0.924,-3.290,5.525,-4.881,0.330,-0.271,-0.070,-0.193,0.104,1.926,-0.165,0.086,1.809
15.738,-0.474,-1.505,0.668,0.215,0.622,-0.940,-3.285,5.540,-4.902,0.221,-0.158,-0.071,-0.193,0.104,1.925,-0.169,0.083,1.804
15.767,-0.153,-1.316,1.315,0.211,0.610,-0.950,-3.281,5.552,-4.921,-0.150,0.051,-0.105,-0.194,0.103,1.923,-0.172,0.090,1.787
15.795,-0.050,-0.557,2.355,0.205,0.585,-0.957,-3.273,5.574,-4.956,-0.232,0.117,0.000,-0.194,0.103,1.922,-0.164,0.097,1.777
15.822,0.033,0.238,2.211,0.203,0.573,-0.953,-3.269,5.586,-4.976,-0.006,0.050,0.057,-0.194,0.103,1.921,-0.163,0.098,1.772
15.850,-0.572,-0.211,1.618,0.197,0.552,-0.934,-3.261,5.608,-5.013,0.578,-0.173,0.026,-0.195,0.103,1.919,-0.180,0.093,1.745
15.876,-0.118,1.404,0.322,0.194,0.544,-0.922,-3.257,5.619,-5.032,0.651,-0.269,0.013,-0.194,0.102,1.919,-0.193,0.079,1.735
15.906,0.734,1.878,0.293,0.191,0.539,-0.910,-3.253,5.632,-5.053,-0.464,-0.400,-0.904,-0.193,0.101,1.917,-0.199,0.072,1.726
15.938,3.060,-1.862,2.453,0.195,0.536,-0.886,-3.246,5.652,-5.086,-1.185,0.040,-1.118,-0.193,0.101,1.915,-0.147,0.075,1.737
15.963,2.302,-1.914,2.022,0.206,0.529,-0.867,-3.242,5.663,-5.105,-0.915,0.630,0.351,-0.195,0.100,1.910,-0.105,0.098,1.713
15.990,0.257,1.802,0.057,0.231,0.517,-0.832,-3.233,5.683,-5.137,-0.319,0.500,0.864,-0.197,0.100,1.909,-0.080,0.106,1.711
16.015,-0.273,1.836,-0.733,0.243,0.517,-0.816,-3.228,5.694,-5.154,0.204,0.205,0.806,-0.198,0.100,1.908,-0.086,0.108,1.694
16.040,-0.320,1.013,-1.598,0.252,0.519,-0.805,-3.224,5.703,-5.170,0.468,-0.134,0.439,-0.200,0.101,1.907,-0.099,0.095,1.684
16.066,-0.215,0.542,-1.943,0.262,0.523,-0.797,-3.218,5.715,-5.188,0.166,-0.172,0.132,-0.202,0.101,1.906,-0.107,0.088,1.687
16.092,-0.403,0.272,-1.850,0.275,0.531,-0.797,-3.208,5.735,-5.218,-0.087,0.101,0.227,-0.203,0.101,1.905,-0.110,0.084,1.675
16.117,-0.689,0.679,-1.385,0.279,0.536,-0.801,-3.202,5.746,-5.233,-0.257,0.232,0.360,-0.204,0.101,1.905,-0.113,0.080,1.667
16.142,-0.954,0.850,-1.122,0.282,0.542,-0.808,-3.197,5.756,-5.250,-0.261,0.183,0.417,-0.205,0.101,1.905,-0.108,0.083,1.660
16.167,-1.037,0.769,-1.168,0.282,0.550,-0.819,-3.190,5.770,-5.269,0.094,0.023,0.211,-0.207,0.102,1.906,-0.117,0.075,1.650
16.193,-1.074,0.560,-1.329,0.276,0.564,-0.839,-3.180,5.790,-5.300,0.228,-0.054,0.137,-0.208,0.102,1.906,-0.135,0.067,1.645
16.218,-1.039,0.519,-0.906,0.271,0.573,-0.852,-3.174,5.801,-5.317,0.227,-0.154,0.083,-0.209,0.102,1.907,-0.140,0.064,1.631
16.244,-0.763,0.419,-0.197,0.264,0.580,-0.864,-3.169,5.812,-5.333,0.004,-0.158,-0.050,-0.210,0.102,1.908,-0.150,0.056,1.615
16.268,-0.783,0.306,0.846,0.247,0.597,-0.884,-3.158,5.837,-5.369,-0.040,-0.077,-0.028,-0.210,0.102,1.909,-0.150,0.053,1.603
16.292,-1.195,0.553,0.459,0.238,0.605,-0.890,-3.154,5.849,-5.387,0.012,0.046,0.066,-0.211,0.102,1.909,-0.156,0.049,1.591
16.316,-1.437,0.613,0.092,0.226,0.613,-0.896,-3.149,5.861,-5.404,0.159,0.178,0.162,-0.211,0.102,1.910,-0.172,0.046,1.582
16.341,-1.524,0.862,0.298,0.213,0.622,-0.900,-3.145,5.873,-5.422,0.310,0.248,0.219,-0.212,0.102,1.910,-0.179,0.051,1.562
16.367,-1.149,0.536,0.457,0.200,0.631,-0.903,-3.141,5.885,-5.439,0.379,0.187,0.044,-0.212,0.103,1.912,-0.197,0.050,1.560
16.392,0.153,-0.348,2.016,0.171,0.649,-0.903,-3.133,5.911,-5.477,0.313,-0.020,-0.147,-0.212,0.103,1.913,-0.209,0.057,1.550
16.419,0.495,-0.375,1.926,0.159,0.656,-0.897,-3.130,5.924,-5.495,0.271,-0.193,-0.083,-0.211,0.104,1.913,-0.215,0.054,1.547
16.447,0.869,0.198,1.168,0.150,0.662,-0.889,-3.127,5.938,-5.512,0.412,-0.325,-0.011,-0.210,0.104,1.915,-0.215,0.048,1.537
16.476,1.828,-0.410,1.062,0.140,0.673,-0.868,-3.121,5.966,-5.549,0.164,-0.578,-0.374,-0.209,0.104,1.915,-0.211,0.035,1.530
16.504,2.336,-1.650,1.178,0.141,0.676,-0.858,-3.118,5.978,-5.565,-0.498,-0.307,-0.508,-0.207,0.103,1.915,-0.205,0.026,1.526
16.531,1.289,-2.060,0.337,0.155,0.669,-0.833,-3.112,6.005,-5.599,-0.495,0.011,-0.023,-0.207,0.102,1.915,-0.168,0.041,1.544
16.559,1.231,-0.823,-0.495,0.166,0.661,-0.822,-3.109,6.018,-5.615,-0.318,0.108,0.354,-0.207,0.101,1.915,-0.150,0.049,1.552
16.586,0.895,-0.383,-0.854,0.178,0.651,-0.813,-3.105,6.032,-5.633,-0.264,-0.139,0.137,-0.207,0.100,1.915,-0.146,0.049,1.554
16.613,0.847,-0.548,-1.098,0.201,0.635,-0.804,-3.098,6.057,-5.664,-0.420,-0.165,0.100,-0.207,0.099,1.915,-0.123,0.047,1.567
16.640,0.376,-0.576,-1.490,0.214,0.626,-0.803,-3.094,6.069,-5.680,-0.480,0.021,0.191,-0.208,0.098,1.915,-0.109,0.054,1.573
16.667,-0.109,-0.377,-2.232,0.225,0.617,-0.807,-3.089,6.082,-5.696,-0.233,0.415,0.431,-0.210,0.097,1.916,-0.101,0.058,1.587
16.693,-1.050,0.260,-2.771,0.243,0.600,-0.826,-3.080,6.106,-5.729,-0.067,0.507,0.519,-0.211,0.096,1.917,-0.105,0.075,1.591
16.718,-1.082,0.269,-2.537,0.247,0.594,-0.843,-3.075,6.118,-5.745,0.031,0.448,0.498,-0.212,0.096,1.919,-0.120,0.079,1.592
16.744,-1.063,-0.095,-2.176,0.249,0.589,-0.862,-3.070,6.129,-5.762,0.039,0.117,0.184,-0.214,0.097,1.921,-0.122,0.084,1.611
16.772,-0.899,-0.491,-0.831,0.246,0.578,-0.905,-3.060,6.153,-5.798,0.056,-0.007,0.160,-0.215,0.098,1.923,-0.135,0.088,1.609
16.796,-0.482,-0.423,-0.045,0.243,0.572,-0.925,-3.055,6.165,-5.816,0.114,-0.100,0.177,-0.216,0.098,1.924,-0.142,0.089,1.617
16.821,-0.232,-0.090,0.756,0.239,0.566,-0.943,-3.051,6.176,-5.835,0.104,-0.222,0.171,-0.216,0.098,1.926,-0.144,0.084,1.625
16.848,-0.075,-0.091,1.485,0.232,0.556,-0.966,-3.041,6.198,-5.872,0.060,-0.279,0.117,-0.218,0.098,1.930,-0.147,0.077,1.630
16.872,-0.092,0.252,1.398,0.229,0.552,-0.971,-3.037,6.210,-5.892,0.045,-0.103,0.116,-0.218,0.098,1.931,-0.150,0.067,1.637
16.897,0.034,0.834,1.445,0.225,0.549,-0.974,-3.032,6.221,-5.912,-0.009,0.092,0.170,-0.219,0.098,1.933,-0.150,0.068,1.643
16.922,-0.414,0.655,1.287,0.222,0.548,-0.973,-3.028,6.232,-5.931,-0.032,0.204,0.182,-0.219,0.098,1.935,-0.152,0.066,1.666
16.948,-0.509,1.750,-0.365,0.214,0.551,-0.969,-3.019,6.254,-5.970,0.308,0.489,0.193,-0.220,0.098,1.939,-0.154,0.072,1.678
16.973,0.396,1.781,0.280,0.210,0.558,-0.967,-3.015,6.265,-5.989,0.327,0.463,0.148,-0.220,0.099,1.941,-0.171,0.072,1.679
16.997,1.921,-0.017,1.992,0.208,0.565,-0.963,-3.010,6.276,-6.010,-0.066,0.115,-0.215,-0.220,0.099,1.943,-0.154,0.077,1.696
17.023,2.756,-1.830,2.915,0.211,0.570,-0.955,-3.006,6.287,-6.028,-0.713,-0.347,-0.695,-0.221,0.101,1.946,-0.141,0.075,1.702
17.049,2.125,-0.961,1.848,0.232,0.569,-0.926,-2.997,6.310,-6.066,-0.382,-0.258,-0.164,-0.222,0.101,1.946,-0.096,0.080,1.724
17.074,1.438,-0.065,0.495,0.246,0.566,-0.909,-2.993,6.321,-6.084,-0.051,-0.116,0.162,-0.223,0.101,1.947,-0.083,0.080,1.727
17.099,0.795,0.173,-0.312,0.263,0.563,-0.892,-2.987,6.334,-6.104,0.060,-0.059,0.209,-0.224,0.101,1.948,-0.084,0.079,1.720
17.125,0.390,0.234,-0.921,0.277,0.562,-0.880,-2.982,6.345,-6.121,-0.283,-0.177,0.083,-0.226,0.101,1.950,-0.078,0.073,1.720
17.151,0.190,-0.462,-1.061,0.304,0.559,-0.865,-2.971,6.366,-6.155,-0.404,-0.018,0.061,-0.228,0.101,1.951,-0.063,0.074,1.735
17.177,-0.180,-0.442,-0.954,0.316,0.556,-0.861,-2.964,6.378,-6.172,-0.419,0.164,0.149,-0.229,0.101,1.952,-0.055,0.077,1.747
17.203,-0.614,-0.069,-1.082,0.327,0.554,-0.860,-2.957,6.390,-6.191,0.075,0.335,0.552,-0.232,0.101,1.954,-0.057,0.082,1.762
17.230,-1.740,0.122,-2.218,0.336,0.550,-0.868,-2.945,6.411,-6.224,0.491,0.417,0.568,-0.234,0.102,1.956,-0.086,0.091,1.740
17.255,-1.966,-0.140,-2.630,0.335,0.549,-0.878,-2.938,6.422,-6.241,0.841,0.520,0.501,-0.235,0.102,1.958,-0.099,0.102,1.750
17.281,-1.599,-0.204,-2.752,0.331,0.548,-0.892,-2.931,6.433,-6.259,0.929,0.409,0.343,-0.235,0.103,1.960,-0.139,0.108,1.742
17.307,-0.938,-0.194,-1.735,0.324,0.546,-0.910,-2.925,6.444,-6.277,0.216,0.059,-0.167,-0.235,0.106,1.964,-0.149,0.112,1.776
17.333,0.189,0.531,1.196,0.310,0.544,-0.943,-2.912,6.465,-6.314,-0.072,0.029,-0.230,-0.235,0.107,1.966,-0.151,0.115,1.801
17.357,0.213,1.361,1.762,0.305,0.545,-0.953,-2.906,6.476,-6.333,-0.072,0.007,-0.155,-0.234,0.108,1.968,-0.146,0.108,1.809
17.380,-0.067,1.642,1.578,0.300,0.549,-0.959,-2.900,6.487,-6.352,0.089,0.078,-0.026,-0.234,0.109,1.970,-0.147,0.110,1.811
17.403,-0.302,1.519,1.203,0.296,0.556,-0.961,-2.894,6.499,-6.372,0.260,0.305,0.078,-0.233,0.112,1.973,-0.152,0.104,1.812
17.429,-0.449,0.858,1.023,0.286,0.574,-0.959,-2.882,6.521,-6.410,0.119,0.434,0.111,-0.232,0.113,1.974,-0.161,0.112,1.803
17.453,-0.779,0.781,1.019,0.280,0.584,-0.955,-2.877,6.532,-6.429,0.026,0.542,0.232,-0.232,0.115,1.976,-0.162,0.122,1.816
17.477,-0.782,1.237,0.649,0.273,0.596,-0.950,-2.871,6.544,-6.448,0.073,0.552,0.389,-0.231,0.117,1.978,-0.169,0.122,1.809
17.501,-0.784,1.631,0.402,0.265,0.609,-0.944,-2.866,6.556,-6.467,0.200,0.403,0.437,-0.230,0.119,1.980,-0.173,0.129,1.816
17.524,0.619,1.649,2.024,0.257,0.625,-0.936,-2.860,6.570,-6.487,-0.143,-0.770,-0.068,-0.229,0.123,1.984,-0.170,0.118,1.844
17.549,1.603,0.389,1.845,0.252,0.657,-0.911,-2.850,6.594,-6.522,-0.352,-0.931,-0.303,-0.228,0.125,1.986,-0.147,0.087,1.866
17.573,1.245,-0.282,1.094,0.254,0.671,-0.895,-2.845,6.607,-6.541,-0.283,-0.671,-0.327,-0.228,0.125,1.988,-0.141,0.074,1.881
17.598,1.078,0.017,0.194,0.259,0.684,-0.880,-2.840,6.621,-6.558,-0.111,-0.302,-0.143,-0.227,0.126,1.989,-0.129,0.071,1.889
17.621,1.349,-0.127,-0.067,0.265,0.696,-0.865,-2.835,6.635,-6.576,-0.039,-0.241,0.023,-0.227,0.126,1.991,-0.129,0.066,1.892
17.644,1.438,-0.446,-0.052,0.273,0.706,-0.852,-2.829,6.649,-6.593,-0.368,-0.241,-0.176,-0.227,0.126,1.993,-0.115,0.067,1.909
17.670,1.007,-0.477,-0.513,0.295,0.721,-0.831,-2.818,6.677,-6.627,-0.332,-0.062,-0.060,-0.227,0.126,1.994,-0.094,0.067,1.931
17.698,0.597,-0.512,-1.149,0.308,0.725,-0.824,-2.812,6.692,-6.643,-0.235,0.086,0.038,-0.227,0.126,1.995,-0.091,0.068,1.938
17.725,0.351,-0.552,-1.806,0.319,0.728,-0.821,-2.806,6.706,-6.659,-0.001,0.246,0.099,-0.228,0.126,1.998,-0.087,0.077,1.949
17.756,-0.150,-0.782,-2.133,0.342,0.730,-0.826,-2.792,6.736,-6.693,0.050,0.214,0.140,-0.229,0.127,1.999,-0.094,0.091,1.952
17.784,-0.447,-0.362,-1.971,0.350,0.729,-0.835,-2.785,6.751,-6.710,0.213,-0.110,0.213,-0.229,0.127,2.001,-0.098,0.091,1.965
17.812,-0.357,-0.118,-1.446,0.362,0.726,-0.860,-2.771,6.779,-6.743,0.297,-0.176,0.101,-0.229,0.127,2.002,-0.116,0.082,1.959
17.839,-0.228,0.075,-0.373,0.366,0.724,-0.876,-2.763,6.795,-6.762,0.264,-0.180,-0.010,-0.229,0.127,2.004,-0.123,0.078,1.955
17.869,-0.148,-0.518,-0.587,0.371,0.721,-0.901,-2.749,6.823,-6.796,0.353,0.147,-0.034,-0.229,0.127,2.006,-0.140,0.082,1.963
17.895,-0.189,-0.747,-0.333,0.373,0.718,-0.914,-2.742,6.837,-6.814,0.380,0.288,-0.035,-0.228,0.128,2.007,-0.149,0.087,1.956
17.923,-0.229,-0.269,0.378,0.374,0.713,-0.929,-2.732,6.856,-6.838,0.351,0.072,0.054,-0.226,0.128,2.009,-0.158,0.094,1.955
17.952,-0.307,-0.020,1.127,0.375,0.707,-0.941,-2.720,6.879,-6.869,0.443,-0.116,0.046,-0.225,0.129,2.011,-0.177,0.091,1.928
17.978,-0.463,-0.226,1.360,0.374,0.704,-0.944,-2.712,6.894,-6.889,0.500,-0.189,0.001,-0.223,0.129,2.012,-0.188,0.088,1.933
18.006,-0.838,-0.422,1.000,0.372,0.700,-0.945,-2.705,6.908,-6.908,0.396,0.001,-0.009,-0.220,0.129,2.014,-0.204,0.085,1.939
18.034,-0.263,1.027,0.002,0.364,0.694,-0.944,-2.690,6.936,-6.945,0.162,0.005,-0.111,-0.218,0.129,2.014,-0.216,0.078,1.944
18.061,2.123,0.827,1.811,0.363,0.694,-0.941,-2.683,6.950,-6.964,-0.397,-0.387,-0.481,-0.216,0.129,2.015,-0.208,0.072,1.959
18.089,3.242,-0.647,2.628,0.377,0.694,-0.923,-2.668,6.977,-7.001,-1.423,-0.863,-1.189,-0.214,0.128,2.015,-0.138,0.054,1.998
18.116,1.753,-0.350,1.972,0.392,0.692,-0.907,-2.660,6.991,-7.020,-1.212,-0.451,-0.663,-0.214,0.127,2.014,-0.103,0.053,2.022
18.144,0.175,1.569,0.621,0.407,0.692,-0.891,-2.652,7.005,-7.038,-0.138,0.225,0.597,-0.216,0.124,2.012,-0.093,0.053,1.992
18.172,0.211,0.581,-0.449,0.433,0.699,-0.861,-2.635,7.033,-7.073,0.154,0.056,0.283,-0.217,0.123,2.012,-0.092,0.048,1.980
18.198,0.390,-0.130,-0.998,0.445,0.703,-0.850,-2.627,7.047,-7.090,0.128,-0.120,-0.219,-0.218,0.122,2.011,-0.092,0.048,1.976
18.225,0.208,-0.369,-1.488,0.456,0.707,-0.843,-2.618,7.061,-7.107,-0.061,0.338,-0.089,-0.219,0.120,2.010,-0.093,0.047,1.973
18.255,-0.476,-0.103,-1.611,0.475,0.712,-0.838,-2.599,7.089,-7.140,-0.002,0.557,0.145,-0.220,0.120,2.009,-0.096,0.066,1.989
18.280,-0.720,0.045,-1.540,0.482,0.714,-0.841,-2.589,7.104,-7.157,0.158,0.385,0.195,-0.221,0.120,2.009,-0.106,0.070,1.980
18.304,-1.014,0.221,-1.709,0.486,0.715,-0.847,-2.580,7.117,-7.173,0.613,0.183,0.156,-0.222,0.119,2.008,-0.116,0.073,1.981
18.331,-1.200,-0.262,-2.230,0.488,0.719,-0.869,-2.561,7.146,-7.207,0.662,0.184,0.128,-0.221,0.120,2.008,-0.155,0.076,1.949
18.356,-1.180,-0.216,-2.116,0.484,0.719,-0.886,-2.550,7.162,-7.227,0.560,0.115,0.131,-0.221,0.120,2.007,-0.180,0.075,1.930
18.381,-1.368,0.018,-1.574,0.479,0.720,-0.904,-2.541,7.175,-7.244,0.385,0.043,0.097,-0.220,0.120,2.007,-0.188,0.075,1.933
18.407,-1.091,-0.036,-0.963,0.472,0.720,-0.922,-2.531,7.190,-7.262,-0.011,0.000,-0.173,-0.218,0.120,2.007,-0.202,0.072,1.917
18.432,-0.804,-0.211,0.471,0.455,0.720,-0.956,-2.513,7.218,-7.299,-0.131,-0.034,-0.177,-0.217,0.121,2.007,-0.206,0.072,1.923
18.457,-0.897,0.378,0.886,0.444,0.720,-0.970,-2.503,7.234,-7.321,-0.109,-0.055,-0.062,-0.216,0.121,2.007,-0.204,0.070,1.922
18.483,-0.718,0.119,1.659,0.434,0.720,-0.978,-2.495,7.247,-7.338,-0.050,0.125,0.045,-0.215,0.121,2.006,-0.208,0.068,1.928
18.509,0.040,-0.299,1.730,0.415,0.720,-0.984,-2.478,7.276,-7.377,0.033,0.265,0.147,-0.214,0.122,2.006,-0.209,0.077,1.932
18.533,-0.024,-0.417,1.717,0.406,0.720,-0.981,-2.470,7.290,-7.396,0.219,0.378,0.261,-0.213,0.122,2.006,-0.214,0.083,1.920
18.558,-0.244,0.055,1.594,0.397,0.719,-0.974,-2.461,7.306,-7.419,0.441,0.320,0.336,-0.213,0.123,2.006,-0.225,0.087,1.910
18.583,0.097,0.568,0.468,0.390,0.719,-0.967,-2.454,7.319,-7.436,0.756,0.134,0.217,-0.210,0.125,2.007,-0.238,0.090,1.895
18.608,0.769,-0.075,0.669,0.379,0.720,-0.954,-2.439,7.347,-7.474,0.542,-0.149,-0.072,-0.208,0.126,2.007,-0.251,0.090,1.897
18.632,1.959,-0.301,1.924,0.378,0.721,-0.945,-2.431,7.363,-7.494,0.048,-0.617,-0.494,-0.206,0.126,2.008,-0.249,0.084,1.900
18.657,2.850,-0.320,1.895,0.381,0.720,-0.934,-2.424,7.376,-7.511,-0.277,-0.902,-0.706,-0.204,0.126,2.008,-0.243,0.070,1.911
18.683,2.713,-0.552,1.182,0.390,0.719,-0.919,-2.415,7.392,-7.532,-0.221,-0.656,-0.500,-0.201,0.125,2.006,-0.218,0.064,1.939
18.709,1.916,-0.352,-0.870,0.419,0.714,-0.895,-2.400,7.420,-7.567,-0.151,-0.314,-0.312,-0.200,0.124,2.005,-0.196,0.055,1.946
18.734,1.560,0.192,-1.279,0.437,0.711,-0.887,-2.391,7.434,-7.585,-0.193,-0.142,-0.169,-0.198,0.123,2.004,-0.194,0.052,1.953
18.759,1.238,-0.037,-1.428,0.455,0.709,-0.883,-2.383,7.448,-7.602,-0.310,-0.087,-0.155,-0.197,0.121,2.003,-0.177,0.056,1.969
18.789,1.129,-0.439,-1.345,0.495,0.703,-0.883,-2.364,7.476,-7.637,-0.498,0.066,-0.156,-0.196,0.119,2.001,-0.152,0.064,1.994
18.814,0.734,0.046,-1.297,0.516,0.699,-0.887,-2.353,7.491,-7.656,-0.468,0.081,-0.020,-0.196,0.118,1.999,-0.145,0.065,1.993
18.842,0.035,0.148,-1.415,0.534,0.696,-0.893,-2.342,7.505,-7.674,-0.310,0.104,0.183,-0.196,0.117,1.998,-0.138,0.065,1.981
18.866,-0.413,0.052,-1.713,0.551,0.693,-0.902,-2.332,7.519,-7.691,0.382,0.121,0.314,-0.196,0.115,1.996,-0.139,0.066,1.964
18.894,-0.741,-0.175,-1.826,0.577,0.689,-0.927,-2.309,7.546,-7.728,0.395,0.073,0.217,-0.196,0.114,1.996,-0.163,0.067,1.942
18.921,-0.535,-0.024,-1.380,0.585,0.686,-0.943,-2.297,7.560,-7.747,0.318,0.022,0.142,-0.196,0.113,1.995,-0.175,0.065,1.936
18.949,-0.251,-0.169,-0.541,0.598,0.682,-0.978,-2.273,7.588,-7.786,0.264,0.087,-0.010,-0.195,0.112,1.994,-0.181,0.064,1.958
18.975,0.053,-0.366,0.085,0.603,0.679,-0.994,-2.261,7.602,-7.807,0.215,0.148,-0.089,-0.194,0.112,1.994,-0.195,0.069,1.969
19.000,0.251,-0.269,0.670,0.607,0.676,-1.006,-2.250,7.614,-7.825,0.159,0.116,-0.100,-0.193,0.111,1.993,-0.197,0.074,1.964
19.024,0.371,-0.178,0.612,0.612,0.673,-1.017,-2.237,7.628,-7.845,0.263,-0.023,-0.065,-0.191,0.110,1.992,-0.202,0.075,1.968
19.047,0.322,-0.157,0.644,0.617,0.670,-1.025,-2.225,7.641,-7.865,0.159,-0.039,-0.072,-0.190,0.110,1.992,-0.205,0.077,1.973
19.074,-0.120,-0.348,1.867,0.627,0.662,-1.033,-2.200,7.668,-7.907,0.053,-0.035,0.023,-0.189,0.110,1.991,-0.212,0.077,1.949
19.097,-0.628,1.741,0.655,0.631,0.659,-1.031,-2.188,7.681,-7.927,0.180,-0.044,0.228,-0.188,0.109,1.991,-0.217,0.074,1.951
19.121,-0.873,1.682,-1.126,0.632,0.660,-1.030,-2.175,7.694,-7.948,0.391,-0.103,0.225,-0.186,0.109,1.990,-0.228,0.057,1.925
19.144,0.640,0.426,-1.402,0.634,0.662,-1.032,-2.162,7.708,-7.969,-0.656,0.031,-0.860,-0.184,0.108,1.990,-0.231,0.055,1.908
19.169,2.550,-1.047,1.698,0.646,0.665,-1.035,-2.137,7.734,-8.010,-1.399,0.347,-0.955,-0.183,0.107,1.988,-0.177,0.078,2.001
19.194,2.254,-0.167,1.706,0.658,0.664,-1.031,-2.124,7.748,-8.031,-1.521,0.397,-0.630,-0.183,0.107,1.987,-0.133,0.094,2.068
19.218,2.039,0.796,1.652,0.675,0.664,-1.025,-2.109,7.762,-8.053,-1.203,0.173,-0.283,-0.184,0.107,1.985,-0.108,0.098,2.079
19.242,1.281,0.959,1.670,0.690,0.666,-1.017,-2.097,7.774,-8.072,-0.727,-0.255,-0.176,-0.186,0.107,1.983,-0.083,0.092,2.035
19.266,0.903,0.963,0.727,0.707,0.669,-1.006,-2.083,7.787,-8.092,0.048,-0.693,-0.134,-0.190,0.106,1.979,-0.081,0.078,2.024
19.296,-0.224,0.598,-1.699,0.740,0.679,-0.988,-2.054,7.814,-8.132,0.237,-0.406,0.098,-0.191,0.106,1.977,-0.084,0.051,1.982
19.320,-0.324,0.490,-2.750,0.754,0.685,-0.987,-2.039,7.828,-8.151,0.286,-0.071,0.313,-0.193,0.104,1.975,-0.092,0.043,1.969
19.346,-0.121,-0.092,-3.122,0.765,0.691,-0.991,-2.024,7.842,-8.171,-0.022,0.465,0.125,-0.196,0.103,1.972,-0.097,0.046,1.995
19.371,0.378,-1.773,-3.315,0.786,0.697,-1.017,-1.993,7.870,-8.211,-0.070,0.699,0.005,-0.197,0.102,1.971,-0.099,0.080,2.025
19.397,-0.248,-0.945,-3.319,0.796,0.695,-1.040,-1.975,7.885,-8.234,0.004,0.711,0.068,-0.198,0.102,1.970,-0.107,0.102,2.033
19.424,-0.817,-0.550,-2.728,0.804,0.692,-1.065,-1.959,7.899,-8.255,-0.109,0.104,0.417,-0.200,0.103,1.968,-0.111,0.109,2.020
19.450,-0.379,0.513,1.001,0.812,0.685,-1.111,-1.929,7.925,-8.296,-0.398,-0.172,0.378,-0.202,0.104,1.967,-0.109,0.104,2.022
19.475,-0.796,1.192,2.243,0.814,0.684,-1.129,-1.912,7.939,-8.319,-0.524,-0.380,0.381,-0.203,0.104,1.967,-0.101,0.088,2.018
19.500,-1.251,1.025,1.737,0.814,0.686,-1.141,-1.896,7.952,-8.341,0.228,-0.432,0.386,-0.205,0.104,1.967,-0.108,0.078,2.006
19.529,-1.849,0.608,0.713,0.806,0.693,-1.154,-1.864,7.980,-8.387,0.474,-0.214,0.332,-0.207,0.103,1.967,-0.137,0.057,1.973
19.555,-1.979,0.661,0.538,0.796,0.697,-1.158,-1.848,7.994,-8.410,0.230,0.013,0.345,-0.208,0.103,1.968,-0.153,0.047,1.945
19.583,-1.735,0.546,1.122,0.785,0.703,-1.159,-1.832,8.008,-8.434,-0.225,0.387,0.139,-0.209,0.103,1.969,-0.153,0.051,1.990
19.610,-0.502,0.269,3.050,0.757,0.715,-1.150,-1.801,8.036,-8.480,-0.188,0.299,0.062,-0.210,0.103,1.970,-0.151,0.058,2.023
19.637,-0.110,0.007,2.968,0.744,0.721,-1.138,-1.786,8.051,-8.503,0.035,0.147,0.050,-0.211,0.103,1.971,-0.153,0.061,2.008
19.665,0.156,0.464,2.027,0.731,0.728,-1.120,-1.770,8.066,-8.528,0.299,-0.159,0.122,-0.212,0.104,1.973,-0.159,0.060,1.988
19.695,1.049,-0.158,1.460,0.714,0.739,-1.085,-1.742,8.094,-8.569,0.155,-0.213,0.024,-0.213,0.104,1.974,-0.166,0.051,1.991
19.721,1.179,-0.483,1.210,0.709,0.744,-1.063,-1.727,8.111,-8.593,0.027,-0.060,-0.046,-0.213,0.104,1.974,-0.160,0.056,2.010
19.750,0.983,-0.052,0.187,0.707,0.749,-1.026,-1.700,8.139,-8.633,0.098,-0.110,0.125,-0.213,0.104,1.976,-0.157,0.057,2.056
19.776,0.792,0.290,-0.013,0.710,0.751,-1.009,-1.686,8.154,-8.653,0.148,-0.371,0.156,-0.214,0.104,1.977,-0.161,0.048,2.063
19.804,0.836,0.458,0.180,0.713,0.754,-0.993,-1.671,8.169,-8.673,-0.148,-0.456,0.000,-0.214,0.103,1.979,-0.155,0.038,2.083
19.833,0.744,0.637,0.146,0.724,0.762,-0.965,-1.643,8.199,-8.712,-0.269,-0.250,-0.092,-0.214,0.102,1.980,-0.142,0.022,2.091
19.860,0.596,0.496,-0.313,0.732,0.768,-0.953,-1.628,8.215,-8.731,-0.285,-0.020,-0.148,-0.214,0.101,1.981,-0.138,0.021,2.094
19.887,0.695,-0.045,-0.435,0.739,0.773,-0.942,-1.613,8.230,-8.750,-0.197,0.156,-0.255,-0.216,0.099,1.982,-0.128,0.028,2.079
19.914,0.451,-0.313,-1.132,0.756,0.780,-0.928,-1.583,8.261,-8.788,-0.011,0.081,-0.171,-0.216,0.098,1.983,-0.123,0.037,2.074
19.941,-0.057,-0.593,-1.828,0.765,0.782,-0.925,-1.568,8.278,-8.807,0.265,0.070,0.006,-0.217,0.098,1.983,-0.129,0.037,2.073
19.970,-0.374,-0.451,-1.417,0.778,0.782,-0.932,-1.537,8.308,-8.843,0.501,0.140,0.137,-0.218,0.097,1.984,-0.156,0.045,2.050
19.998,0.208,0.224,0.140,0.783,0.781,-0.939,-1.522,8.324,-8.862,0.395,0.013,0.151,-0.217,0.096,1.984,-0.162,0.044,2.052
20.025,0.247,0.134,3.332,0.787,0.781,-0.941,-1.506,8.339,-8.881,-0.059,-1.255,0.054,-0.217,0.095,1.985,-0.168,0.033,2.056
20.054,0.779,-0.596,2.553,0.798,0.780,-0.926,-1.474,8.371,-8.918,-0.081,-1.453,-0.090,-0.216,0.093,1.986,-0.164,-0.020,2.056
20.080,0.519,-1.382,0.549,0.804,0.778,-0.912,-1.458,8.386,-8.937,0.335,-0.722,-0.189,-0.216,0.090,1.986,-0.171,-0.024,2.054
20.108,-0.583,-0.183,-0.389,0.815,0.768,-0.890,-1.426,8.417,-8.973,0.850,0.088,0.353,-0.214,0.086,1.987,-0.189,-0.020,2.054
20.135,0.282,1.067,0.569,0.819,0.763,-0.879,-1.408,8.434,-8.992,0.496,-0.237,-0.044,-0.212,0.084,1.988,-0.221,-0.026,2.026
20.160,0.845,0.330,1.101,0.824,0.761,-0.870,-1.393,8.448,-9.008,0.368,-0.147,-0.340,-0.211,0.081,1.988,-0.222,-0.026,2.031
20.189,0.578,1.313,-1.594,0.836,0.760,-0.852,-1.360,8.478,-9.042,0.654,-0.239,-0.072,-0.206,0.077,1.989,-0.238,-0.036,2.026
20.216,0.715,1.720,-1.500,0.844,0.764,-0.848,-1.343,8.493,-9.059,0.002,-1.056,-0.243,-0.204,0.074,1.989,-0.239,-0.056,2.030
20.242,1.248,1.253,0.845,0.854,0.771,-0.844,-1.324,8.511,-9.079,-0.852,-1.509,-0.547,-0.202,0.071,1.988,-0.211,-0.086,2.056
20.270,2.268,-0.211,0.888,0.877,0.784,-0.832,-1.292,8.540,-9.110,-0.856,-0.656,-0.881,-0.199,0.063,1.987,-0.161,-0.110,2.064
20.296,1.981,-1.146,-0.741,0.894,0.790,-0.825,-1.274,8.555,-9.126,-0.463,0.151,-0.671,-0.199,0.058,1.985,-0.155,-0.106,2.058
20.323,1.081,-0.329,-1.398,0.913,0.793,-0.820,-1.256,8.571,-9.143,0.015,0.342,0.280,-0.198,0.050,1.982,-0.143,-0.089,2.021
20.351,-0.305,1.258,-1.602,0.947,0.801,-0.821,-1.219,8.603,-9.176,0.148,0.040,0.385,-0.198,0.046,1.981,-0.145,-0.094,2.006
20.378,-0.592,0.880,-1.440,0.961,0.808,-0.826,-1.200,8.619,-9.192,0.181,-0.182,0.232,-0.198,0.042,1.979,-0.148,-0.099,1.997
20.406,-0.113,0.057,-1.763,0.973,0.816,-0.834,-1.180,8.635,-9.209,0.072,-0.038,-0.222,-0.197,0.035,1.977,-0.152,-0.104,1.998
20.434,-0.275,-0.578,-2.188,0.993,0.826,-0.858,-1.141,8.668,-9.243,0.070,0.151,-0.167,-0.197,0.032,1.976,-0.161,-0.097,1.985
20.461,-0.788,-0.307,-2.022,1.000,0.830,-0.876,-1.120,8.686,-9.261,0.088,0.237,0.038,-0.196,0.029,1.975,-0.162,-0.092,1.985
20.489,-1.035,0.165,-1.962,1.007,0.835,-0.916,-1.081,8.718,-9.296,0.093,0.303,0.147,-0.195,0.024,1.973,-0.174,-0.088,1.980
20.515,-0.912,-0.299,-2.139,1.007,0.837,-0.939,-1.061,8.735,-9.314,0.053,0.412,0.021,-0.194,0.021,1.972,-0.185,-0.081,1.963
20.541,-0.931,-0.570,-1.850,1.006,0.838,-0.964,-1.041,8.752,-9.333,-0.044,0.527,-0.059,-0.194,0.019,1.971,-0.184,-0.071,1.964
20.569,-0.862,-0.657,-0.781,0.998,0.837,-1.015,-1.001,8.785,-9.373,-0.343,0.538,-0.048,-0.193,0.016,1.970,-0.182,-0.047,1.962
20.596,-0.960,-0.389,0.084,0.992,0.835,-1.038,-0.981,8.802,-9.393,-0.413,0.479,-0.010,-0.193,0.015,1.969,-0.182,-0.038,1.959
20.622,-1.175,-0.348,0.404,0.984,0.832,-1.059,-0.961,8.819,-9.414,-0.325,0.365,0.173,-0.193,0.014,1.967,-0.174,-0.030,1.957
20.651,-1.634,-0.001,0.850,0.964,0.826,-1.091,-0.922,8.852,-9.457,-0.175,0.315,0.232,-0.194,0.014,1.967,-0.173,-0.021,1.949
20.677,-1.489,0.367,1.323,0.951,0.824,-1.101,-0.903,8.868,-9.479,-0.026,0.215,0.275,-0.195,0.014,1.966,-0.182,-0.024,1.934
20.706,-1.138,0.526,1.792,0.934,0.823,-1.109,-0.881,8.887,-9.505,0.219,0.065,-0.040,-0.195,0.014,1.966,-0.184,-0.022,1.918
20.733,0.140,-0.176,2.661,0.908,0.823,-1.108,-0.847,8.918,-9.546,0.327,0.155,-0.177,-0.196,0.015,1.966,-0.196,-0.020,1.905
20.759,-0.433,-0.331,2.712,0.893,0.823,-1.098,-0.825,8.937,-9.572,0.371,0.446,-0.173,-0.196,0.015,1.965,-0.206,-0.010,1.894
20.787,-0.923,0.130,1.884,0.881,0.822,-1.087,-0.809,8.952,-9.592,0.702,0.582,-0.166,-0.195,0.017,1.965,-0.215,0.006,1.888
20.814,0.315,-0.054,-0.145,0.857,0.824,-1.062,-0.776,8.983,-9.633,0.695,-0.012,-0.743,-0.194,0.018,1.964,-0.246,0.014,1.862
20.841,1.754,-1.164,0.229,0.848,0.825,-1.050,-0.759,9.000,-9.654,0.282,-0.371,-1.330,-0.193,0.019,1.963,-0.239,0.025,1.870
20.868,2.069,-2.076,0.711,0.846,0.816,-1.027,-0.725,9.033,-9.695,-0.600,0.291,-0.770,-0.190,0.021,1.958,-0.233,0.028,1.859
20.895,1.569,-1.099,0.493,0.850,0.807,-1.016,-0.709,9.049,-9.716,-0.677,0.545,-0.070,-0.190,0.022,1.955,-0.195,0.064,1.873
20.923,0.826,0.732,0.031,0.857,0.798,-1.005,-0.691,9.066,-9.737,-0.373,0.111,0.214,-0.190,0.025,1.950,-0.177,0.069,1.860
20.950,0.580,0.437,-0.435,0.872,0.788,-0.987,-0.657,9.097,-9.776,-0.222,-0.059,0.073,-0.190,0.026,1.948,-0.159,0.067,1.862
20.977,0.581,-0.375,-0.977,0.880,0.784,-0.980,-0.638,9.114,-9.797,-0.065,0.024,0.007,-0.191,0.028,1.946,-0.157,0.068,1.850
21.005,0.463,-0.758,-1.330,0.888,0.780,-0.977,-0.621,9.129,-9.816,0.123,0.116,0.167,-0.191,0.030,1.942,-0.156,0.077,1.851
21.033,-0.228,-0.243,-1.798,0.903,0.770,-0.980,-0.586,9.159,-9.854,0.133,0.060,0.335,-0.191,0.032,1.940,-0.164,0.081,1.827
21.060,-0.688,0.022,-1.843,0.909,0.765,-0.987,-0.568,9.174,-9.874,0.144,-0.006,0.487,-0.192,0.033,1.939,-0.166,0.080,1.822
21.088,-0.681,-0.206,-1.594,0.915,0.756,-1.009,-0.531,9.205,-9.914,0.277,0.039,0.429,-0.191,0.036,1.937,-0.178,0.075,1.809
21.114,-0.340,-0.269,-1.171,0.915,0.751,-1.022,-0.513,9.220,-9.934,0.313,-0.017,0.279,-0.191,0.038,1.936,-0.193,0.075,1.815
21.141,-0.210,-0.166,-0.995,0.915,0.747,-1.037,-0.495,9.235,-9.955,0.341,-0.140,0.165,-0.191,0.039,1.936,-0.198,0.072,1.819
21.169,-0.185,-0.063,-0.467,0.914,0.739,-1.066,-0.458,9.265,-9.997,0.415,-0.125,0.070,-0.189,0.041,1.935,-0.216,0.067,1.829
21.196,0.053,0.237,0.234,0.913,0.735,-1.081,-0.439,9.280,-10.019,0.299,-0.093,0.000,-0.188,0.042,1.935,-0.221,0.063,1.840
21.223,0.427,-0.081,0.803,0.913,0.731,-1.093,-0.418,9.297,-10.044,0.001,-0.116,-0.170,-0.186,0.043,1.934,-0.221,0.062,1.833
21.252,0.133,0.064,0.867,0.914,0.726,-1.106,-0.385,9.323,-10.084,-0.002,0.034,-0.140,-0.185,0.044,1.934,-0.217,0.063,1.830
21.278,-0.145,0.103,1.071,0.915,0.724,-1.110,-0.363,9.341,-10.110,-0.002,0.138,-0.055,-0.183,0.044,1.933,-0.218,0.065,1.827
21.306,-0.890,-0.232,1.276,0.915,0.722,-1.111,-0.346,9.354,-10.132,-0.009,-0.026,-0.081,-0.181,0.046,1.932,-0.217,0.067,1.834
21.332,-0.502,2.383,1.585,0.910,0.722,-1.105,-0.312,9.381,-10.173,0.116,-0.387,-0.331,-0.180,0.046,1.932,-0.224,0.055,1.830
21.360,0.203,2.107,1.335,0.906,0.727,-1.098,-0.294,9.396,-10.195,-0.148,-0.633,-0.870,-0.179,0.047,1.931,-0.215,0.035,1.846
21.387,1.182,0.425,0.291,0.905,0.735,-1.090,-0.276,9.410,-10.217,-1.253,0.303,-1.361,-0.178,0.046,1.927,-0.200,0.032,1.846
21.414,1.262,-1.979,0.429,0.908,0.745,-1.075,-0.239,9.440,-10.260,-1.434,0.892,-0.773,-0.179,0.047,1.924,-0.140,0.074,1.887
21.442,1.167,-1.410,0.414,0.914,0.743,-1.067,-0.221,9.455,-10.281,-1.146,0.527,0.066,-0.183,0.049,1.918,-0.106,0.103,1.881
21.470,0.743,0.506,0.791,0.929,0.735,-1.050,-0.184,9.484,-10.324,-0.897,0.143,0.145,-0.185,0.050,1.915,-0.062,0.114,1.887
21.500,-0.026,1.158,0.438,0.937,0.734,-1.040,-0.164,9.500,-10.347,-0.657,-0.214,0.209,-0.189,0.051,1.913,-0.050,0.109,1.873
21.529,0.035,-0.018,-0.778,0.950,0.735,-1.025,-0.128,9.528,-10.386,-0.112,0.076,0.249,-0.195,0.053,1.908,-0.040,0.102,1.858
21.555,-0.170,0.040,-1.193,0.956,0.735,-1.021,-0.109,9.543,-10.406,0.101,0.149,0.266,-0.199,0.055,1.906,-0.044,0.104,1.852
21.582,-0.705,0.278,-1.723,0.960,0.736,-1.020,-0.090,9.558,-10.427,0.238,0.038,0.329,-0.202,0.056,1.904,-0.050,0.105,1.845
21.611,-0.356,0.175,-1.825,0.964,0.740,-1.029,-0.051,9.587,-10.468,0.331,-0.149,0.348,-0.207,0.058,1.901,-0.071,0.094,1.835
21.638,-0.405,-0.133,-2.083,0.964,0.742,-1.039,-0.032,9.602,-10.488,0.323,0.011,0.209,-0.210,0.059,1.900,-0.083,0.094,1.824
21.666,-0.294,-0.774,-1.683,0.964,0.743,-1.051,-0.013,9.617,-10.509,0.116,0.320,0.153,-0.214,0.061,1.898,-0.088,0.094,1.829
21.694,-0.025,-0.075,-0.368,0.962,0.742,-1.080,0.026,9.647,-10.552,-0.048,0.751,0.219,-0.216,0.062,1.897,-0.090,0.116,1.848
21.720,0.019,0.149,-1.043,0.961,0.742,-1.097,0.048,9.664,-10.577,-0.208,0.729,0.149,-0.217,0.063,1.897,-0.085,0.129,1.852
21.749,0.541,-0.421,0.502,0.962,0.741,-1.122,0.084,9.691,-10.618,-0.463,0.280,0.043,-0.222,0.067,1.896,-0.066,0.147,1.881
21.776,-0.502,-0.449,0.893,0.962,0.740,-1.132,0.103,9.706,-10.640,-0.452,0.143,0.089,-0.224,0.070,1.895,-0.057,0.149,1.889
21.801,-1.165,0.832,1.222,0.961,0.739,-1.139,0.121,9.720,-10.662,-0.283,-0.007,0.360,-0.226,0.072,1.895,-0.060,0.140,1.878
21.827,-1.373,1.241,1.133,0.957,0.741,-1.143,0.143,9.737,-10.688,0.391,-0.241,0.434,-0.231,0.076,1.895,-0.063,0.136,1.883
21.853,-0.030,-0.631,0.122,0.946,0.745,-1.146,0.179,9.765,-10.732,0.539,-0.261,0.175,-0.233,0.077,1.896,-0.089,0.125,1.855
21.879,0.757,0.198,0.068,0.942,0.745,-1.147,0.198,9.780,-10.755,0.452,-0.155,0.177,-0.235,0.079,1.897,-0.092,0.122,1.858
21.905,0.686,0.207,0.781,0.939,0.747,-1.147,0.217,9.795,-10.778,-0.352,-0.848,0.373,-0.238,0.081,1.898,-0.094,0.117,1.884
21.934,-0.283,0.706,1.802,0.938,0.753,-1.142,0.255,9.825,-10.824,-0.707,-1.449,0.205,-0.239,0.081,1.899,-0.066,0.063,1.896
21.959,-0.082,0.338,1.821,0.937,0.758,-1.134,0.273,9.840,-10.846,-0.683,-0.792,-0.137,-0.241,0.081,1.901,-0.052,0.046,1.901
21.985,0.910,0.822,1.285,0.937,0.763,-1.124,0.292,9.855,-10.869,-0.184,-0.134,-0.130,-0.246,0.080,1.902,-0.045,0.042,1.915
22.011,1.161,0.764,0.546,0.944,0.778,-1.101,0.330,9.886,-10.913,-0.219,-0.291,-0.258,-0.248,0.079,1.903,-0.024,0.031,1.919
22.036,1.005,0.589,0.009,0.951,0.786,-1.090,0.349,9.902,-10.935,-0.167,-0.119,-0.314,-0.251,0.078,1.904,-0.011,0.028,1.924
22.060,0.831,-0.438,-0.257,0.958,0.794,-1.081,0.368,9.918,-10.957,-0.023,0.117,-0.398,-0.253,0.077,1.904,-0.011,0.030,1.933
22.086,1.232,-0.580,-0.904,0.967,0.800,-1.073,0.387,9.934,-10.979,0.064,0.090,-0.385,-0.258,0.075,1.904,-0.003,0.042,1.924
22.111,0.606,-0.537,-1.246,0.989,0.807,-1.066,0.426,9.966,-11.021,-0.209,-0.162,-0.371,-0.260,0.074,1.904,0.004,0.047,1.933
22.136,-0.025,-0.583,-0.634,1.000,0.808,-1.066,0.446,9.982,-11.043,-0.404,-0.173,-0.290,-0.262,0.073,1.903,0.011,0.043,1.950
22.160,-0.184,-0.717,-0.390,1.010,0.808,-1.067,0.466,9.998,-11.064,-0.365,-0.022,-0.285,-0.265,0.072,1.902,0.015,0.046,1.945
22.186,0.045,-0.319,-0.818,1.019,0.806,-1.069,0.486,10.014,-11.085,0.298,-0.165,-0.026,-0.270,0.071,1.901,0.015,0.049,1.927
22.211,0.142,-0.384,-1.201,1.033,0.802,-1.078,0.526,10.046,-11.127,0.429,-0.487,-0.049,-0.272,0.070,1.900,-0.003,0.037,1.899
22.236,0.448,0.175,-1.353,1.040,0.800,-1.086,0.547,10.062,-11.149,0.411,-0.524,0.012,-0.274,0.069,1.899,-0.006,0.027,1.887
22.260,0.744,0.932,-1.355,1.047,0.799,-1.096,0.569,10.078,-11.172,0.320,-0.385,0.206,-0.275,0.067,1.898,-0.013,0.019,1.885
22.284,0.502,0.676,-1.037,1.055,0.800,-1.108,0.590,10.094,-11.194,-0.023,0.114,0.114,-0.278,0.064,1.897,-0.010,0.014,1.913
22.309,0.060,-0.355,-0.275,1.069,0.799,-1.130,0.633,10.126,-11.238,-0.094,0.198,-0.055,-0.279,0.063,1.897,-0.008,0.022,1.929
22.334,-0.491,-0.006,0.072,1.074,0.798,-1.140,0.654,10.142,-11.261,-0.013,0.039,0.031,-0.280,0.062,1.896,-0.009,0.023,1.930
22.358,-0.535,0.393,0.209,1.078,0.797,-1.149,0.675,10.158,-11.284,0.108,-0.055,0.077,-0.281,0.060,1.896,-0.014,0.018,1.936
22.384,-0.377,0.477,0.701,1.080,0.797,-1.155,0.697,10.174,-11.307,0.111,-0.233,-0.170,-0.283,0.058,1.895,-0.018,0.015,1.944
22.410,0.227,-0.644,1.315,1.085,0.798,-1.161,0.739,10.205,-11.352,0.144,-0.110,-0.233,-0.284,0.056,1.895,-0.023,0.008,1.933
22.435,-0.233,-0.679,0.698,1.087,0.797,-1.160,0.763,10.223,-11.378,0.315,0.217,-0.095,-0.285,0.055,1.894,-0.032,0.016,1.919
22.461,-0.610,0.780,0.007,1.088,0.796,-1.159,0.784,10.238,-11.400,0.536,0.419,0.131,-0.285,0.054,1.894,-0.043,0.024,1.909
22.486,-0.103,1.127,0.214,1.088,0.797,-1.157,0.806,10.254,-11.423,0.523,0.127,-0.016,-0.285,0.053,1.893,-0.054,0.023,1.901
22.511,1.181,-0.321,0.693,1.092,0.803,-1.152,0.848,10.285,-11.468,0.209,0.061,-0.354,-0.284,0.052,1.892,-0.060,0.033,1.910
22.536,1.210,-0.743,0.624,1.098,0.805,-1.147,0.873,10.304,-11.494,-0.246,0.086,-0.522,-0.284,0.052,1.892,-0.056,0.035,1.933
22.561,0.087,-0.938,-0.051,1.103,0.805,-1.143,0.893,10.318,-11.515,-0.523,0.282,-0.363,-0.283,0.051,1.891,-0.047,0.047,1.941
22.587,0.308,0.719,-0.373,1.109,0.804,-1.140,0.915,10.334,-11.538,-0.205,-0.375,0.116,-0.284,0.051,1.889,-0.042,0.053,1.932
22.612,-0.000,0.836,0.048,1.120,0.811,-1.136,0.960,10.366,-11.583,-0.265,-0.964,-0.238,-0.284,0.050,1.888,-0.026,0.014,1.919
22.637,0.391,0.722,0.272,1.125,0.817,-1.135,0.981,10.382,-11.605,-0.376,-0.914,-0.456,-0.284,0.049,1.887,-0.014,-0.007,1.917
22.662,0.099,0.608,0.022,1.131,0.824,-1.133,1.005,10.399,-11.629,-0.375,-0.652,-0.359,-0.285,0.048,1.886,-0.007,-0.021,1.904
22.687,-0.392,0.001,-0.255,1.135,0.831,-1.132,1.027,10.416,-11.651,-0.136,-0.439,-0.280,-0.287,0.044,1.883,-0.005,-0.030,1.895
22.712,0.266,-1.411,-0.469,1.141,0.838,-1.132,1.076,10.452,-11.700,-0.072,-0.535,-0.111,-0.288,0.041,1.881,-0.003,-0.040,1.889
22.737,0.961,-0.531,-0.600,1.144,0.837,-1.133,1.096,10.466,-11.719,-0.065,-0.602,0.182,-0.289,0.039,1.879,-0.002,-0.052,1.883
22.761,0.620,0.398,-0.415,1.149,0.836,-1.135,1.120,10.483,-11.743,-0.137,-0.465,0.487,-0.290,0.036,1.878,0.008,-0.062,1.902
22.788,0.252,0.235,0.459,1.158,0.837,-1.137,1.165,10.516,-11.788,-0.528,0.109,0.695,-0.292,0.030,1.877,0.015,-0.064,1.919
22.813,0.989,0.546,-0.090,1.164,0.838,-1.137,1.188,10.533,-11.810,-0.551,0.020,0.689,-0.294,0.028,1.877,0.040,-0.062,1.959
22.838,1.459,0.967,-0.087,1.171,0.840,-1.138,1.210,10.549,-11.832,-0.480,-0.090,0.709,-0.295,0.025,1.877,0.065,-0.064,1.988
22.863,0.855,1.105,-0.085,1.182,0.846,-1.138,1.237,10.568,-11.858,-0.312,-0.259,0.571,-0.300,0.020,1.879,0.073,-0.068,2.004
22.889,0.248,1.021,-0.087,1.190,0.851,-1.139,1.260,10.584,-11.880,-0.167,0.161,0.369,-0.302,0.017,1.880,0.085,-0.077,2.016
22.915,-1.055,0.769,1.095,1.205,0.869,-1.137,1.307,10.618,-11.924,-0.018,0.599,0.105,-0.305,0.015,1.882,0.083,-0.070,2.016
22.939,-0.808,0.800,0.711,1.208,0.880,-1.133,1.331,10.635,-11.947,0.130,0.604,-0.177,-0.307,0.013,1.883,0.079,-0.058,2.015
22.963,-0.530,0.128,0.704,1.210,0.891,-1.128,1.356,10.654,-11.971,0.448,0.050,-0.544,-0.310,0.010,1.885,0.069,-0.054,2.003
22.989,-0.388,0.289,0.064,1.213,0.907,-1.116,1.402,10.688,-12.013,0.710,-0.121,-0.417,-0.312,0.008,1.886,0.042,-0.060,1.976
23.015,-0.034,0.321,-1.165,1.213,0.915,-1.112,1.428,10.707,-12.037,0.951,-0.140,-0.175,-0.313,0.007,1.886,0.022,-0.063,1.958
23.040,0.300,-0.487,-0.637,1.214,0.922,-1.110,1.452,10.725,-12.059,0.784,0.137,0.000,-0.313,0.006,1.886,0.008,-0.055,1.954
23.064,0.214,-0.176,0.422,1.216,0.928,-1.108,1.479,10.746,-12.083,0.202,0.282,0.117,-0.312,0.004,1.887,-0.000,-0.050,1.943
23.090,-0.470,0.457,0.079,1.217,0.939,-1.102,1.525,10.781,-12.125,0.231,0.325,0.199,-0.312,0.003,1.887,-0.009,-0.043,1.944
23.113,-0.266,-0.207,-0.424,1.216,0.945,-1.099,1.549,10.800,-12.147,0.408,0.299,0.122,-0.311,0.002,1.888,-0.020,-0.036,1.944
23.137,-0.236,-0.445,-0.820,1.215,0.949,-1.098,1.573,10.819,-12.169,0.479,0.243,-0.015,-0.311,0.002,1.888,-0.030,-0.031,1.942
23.161,-0.240,-0.385,-1.213,1.213,0.952,-1.099,1.598,10.838,-12.191,0.457,0.259,-0.073,-0.309,0.002,1.889,-0.042,-0.024,1.944
23.184,-0.263,-0.193,-1.418,1.211,0.955,-1.102,1.623,10.858,-12.214,-0.121,0.094,-0.122,-0.307,0.001,1.890,-0.049,-0.020,1.953
23.212,0.073,-0.451,-0.532,1.207,0.957,-1.114,1.670,10.895,-12.257,-0.331,-0.001,-0.121,-0.306,0.001,1.890,-0.043,-0.017,1.954
23.240,0.041,-0.099,0.575,1.205,0.957,-1.120,1.694,10.915,-12.280,-0.442,-0.062,-0.061,-0.305,0.002,1.890,-0.035,-0.018,1.950
23.268,-0.157,-0.376,1.137,1.201,0.958,-1.126,1.743,10.953,-12.325,0.139,0.389,-0.017,-0.303,0.002,1.890,-0.029,-0.017,1.954
23.296,0.340,-0.546,-0.008,1.200,0.958,-1.126,1.767,10.972,-12.347,0.679,0.351,-0.032,-0.303,0.002,1.891,-0.047,-0.001,1.937
23.323,-0.285,0.048,-1.097,1.198,0.957,-1.128,1.792,10.992,-12.371,0.364,-0.059,0.020,-0.300,0.003,1.891,-0.064,-0.003,1.935
23.348,-0.087,-0.466,-1.156,1.196,0.954,-1.136,1.837,11.028,-12.414,0.110,0.016,0.016,-0.298,0.003,1.891,-0.071,-0.004,1.933
23.373,0.019,-0.573,-0.666,1.195,0.951,-1.142,1.862,11.048,-12.438,0.028,0.280,0.053,-0.297,0.004,1.891,-0.076,0.005,1.943
23.400,-0.148,-0.156,0.023,1.194,0.948,-1.149,1.886,11.067,-12.461,-0.176,0.241,0.082,-0.295,0.004,1.891,-0.074,0.010,1.959
23.425,-0.057,0.001,0.420,1.192,0.945,-1.154,1.910,11.086,-12.484,-0.276,-0.029,0.128,-0.293,0.006,1.892,-0.068,0.011,1.978
